blobHeight,blobWidth,offset,thisN,thisTrialN,thisRepN,key_resp.keys,key_resp.rt,key_resp.duration,trials.thisRepN,trials.thisTrialN,trials.thisN,trials.thisIndex,thisRow.t,notes,Wait.started,start_trial_text.started,start_key_resp.started,Wait.stopped,start_key_resp.keys,start_key_resp.rt,start_key_resp.duration,trial.started,noise.started,blob_1.started,blob_1.stopped,blob_2.started,blob_2.stopped,noise_2.started,key_resp.started,noise.stopped,trial.stopped,trials.key_resp.keys,trials.key_resp.rt,trials.key_resp.duration,participant,session,date,expName,psychopyVersion,frameRate,expStart,
,,,,,,,,,,,,,,,0.009909541928209364,0.014448958914726973,0.014448958914726973,1.3577715419232845,space,1.3098281669663265,None,,,,,,,,,,,,,,demo,001,2025-03-24_16h55.36.408,Bonnen2015_2afc,2024.2.4,None,2025-03-24 16h55.55.811292 -0400,
1.0,0.07,-0.16,0,0,0,left,0.2660395000129938,None,0,0,0,44,1.4333372089313343,,,,,,,,,1.4032094998983666,1.4333372089313343,1.4740905419457704,1.7316042089369148,1.8172534999903291,2.0769974169088528,2.111811583978124,2.111811583978124,2.1857639169320464,2.3876966249663383,left,0.2660395000129938,None,demo,001,2025-03-24_16h55.36.408,Bonnen2015_2afc,2024.2.4,None,2025-03-24 16h55.55.811292 -0400,
0.1489,0.47,0.02,1,1,0,right,0.3095287919277325,None,0,1,1,14,2.4551011249423027,,,,,,,,,2.4245739999460056,2.4551011249423027,2.492181041976437,2.756715291994624,2.849057583953254,3.112227958976291,3.1463499589590356,3.1463499589590356,3.2022832919610664,3.4576440419768915,right,0.3095287919277325,None,demo,001,2025-03-24_16h55.36.408,Bonnen2015_2afc,2024.2.4,None,2025-03-24 16h55.55.811292 -0400,
1.0,0.07,0.08,2,2,0,right,0.1876650839112699,None,0,2,2,20,3.5170190839562565,,,,,,,,,3.491008499986492,3.5170190839562565,3.5720278749940917,3.834466083906591,3.9218552499078214,4.183533458970487,4.218072458985262,4.218072458985262,4.254853291902691,4.408097333973274,right,0.1876650839112699,None,demo,001,2025-03-24_16h55.36.408,Bonnen2015_2afc,2024.2.4,None,2025-03-24 16h55.55.811292 -0400,
0.1489,0.47,0.01,3,3,0,right,0.1811536670429632,None,0,3,3,10,4.471794083947316,,,,,,,,,4.441490624914877,4.471794083947316,4.509790333919227,4.77262812491972,4.862134874914773,5.125296666985378,5.159726874902844,5.159726874902844,5.219003833946772,5.354192041908391,right,0.1811536670429632,None,demo,001,2025-03-24_16h55.36.408,Bonnen2015_2afc,2024.2.4,None,2025-03-24 16h55.55.811292 -0400,
0.1045,0.67,0.04,4,4,0,right,0.7893486659741029,None,0,4,4,19,5.405176666914485,,,,,,,,,5.382293499889784,5.405176666914485,5.459890499943867,5.723214291967452,5.809678541962057,6.0724788749357685,6.106860874919221,6.106860874919221,6.152675499906763,6.9045597919030115,right,0.7893486659741029,None,demo,001,2025-03-24_16h55.36.408,Bonnen2015_2afc,2024.2.4,None,2025-03-24 16h55.55.811292 -0400,
0.1045,0.67,0.16,5,5,0,right,0.23819391697179526,None,0,5,5,27,6.9635854999069124,,,,,,,,,6.93774995894637,6.9635854999069124,7.022909041959792,7.285758291953243,7.357276541995816,7.622815499897115,7.657308041932993,7.657308041932993,7.718961124890484,7.904289208934642,right,0.23819391697179526,None,demo,001,2025-03-24_16h55.36.408,Bonnen2015_2afc,2024.2.4,None,2025-03-24 16h55.55.811292 -0400,
0.2593,0.27,0.08,6,6,0,right,0.25761600001715124,None,0,6,6,21,7.964982249890454,,,,,,,,,7.937531666946597,7.964982249890454,8.024744916940108,8.288620083942078,8.357609124970622,8.618234416935593,8.670092374901287,8.670092374901287,8.718990583904088,8.937402416951954,right,0.25761600001715124,None,demo,001,2025-03-24_16h55.36.408,Bonnen2015_2afc,2024.2.4,None,2025-03-24 16h55.55.811292 -0400,
0.2593,0.27,0.005,7,7,0,right,0.2831297080265358,None,0,7,7,5,8.990111874998547,,,,,,,,,8.964877666905522,8.990111874998547,9.046375208999962,9.310011666966602,9.396464749937877,9.66173612489365,9.696180166909471,9.696180166909471,9.735672541894019,9.987571124918759,right,0.2831297080265358,None,demo,001,2025-03-24_16h55.36.408,Bonnen2015_2afc,2024.2.4,None,2025-03-24 16h55.55.811292 -0400,
0.1489,0.47,0.04,8,8,0,right,0.36185608396772295,None,0,8,8,18,10.040213499916717,,,,,,,,,10.015959666925482,10.040213499916717,10.096350999898277,10.362220916897058,10.448601458920166,10.709846666897647,10.744327416992746,10.744327416992746,10.785879291943274,11.107508291956037,right,0.36185608396772295,None,demo,001,2025-03-24_16h55.36.408,Bonnen2015_2afc,2024.2.4,None,2025-03-24 16h55.55.811292 -0400,
1.0,0.07,-0.04,9,9,0,left,0.23924933397211134,None,0,9,9,36,11.165179499890655,,,,,,,,,11.13586924993433,11.165179499890655,11.221875666989945,11.482421583961695,11.568540791980922,11.83103708398994,11.865700583904982,11.865700583904982,11.919050374999642,12.108428333885968,left,0.23924933397211134,None,demo,001,2025-03-24_16h55.36.408,Bonnen2015_2afc,2024.2.4,None,2025-03-24 16h55.55.811292 -0400,
0.1489,0.47,0.08,10,10,0,right,0.2973236250691116,None,0,10,10,22,12.15915970900096,,,,,,,,,12.135271166916937,12.15915970900096,12.218962958897464,12.481600749888457,12.567318458925001,12.829094541957602,12.86357279191725,12.86357279191725,12.902286708937027,13.170962499920279,right,0.2973236250691116,None,demo,001,2025-03-24_16h55.36.408,Bonnen2015_2afc,2024.2.4,None,2025-03-24 16h55.55.811292 -0400,
1.0,0.07,0.0,11,11,0,right,0.42080654099117965,None,0,11,11,0,13.222186999977566,,,,,,,,,13.198352166917175,13.222186999977566,13.278640208998695,13.539553583948873,13.627611666917801,13.888784041977488,13.923041583970189,13.923041583970189,13.968918374972418,14.354391624918208,right,0.42080654099117965,None,demo,001,2025-03-24_16h55.36.408,Bonnen2015_2afc,2024.2.4,None,2025-03-24 16h55.55.811292 -0400,
1.0,0.07,0.02,12,12,0,right,0.1956020420184359,None,0,12,12,12,14.410723458975554,,,,,,,,,14.38460554194171,14.410723458975554,14.468397916993126,14.730194291914813,14.81624358391855,15.077772124903277,15.112205083947629,15.112205083947629,15.15226195892319,15.320258166990243,right,0.1956020420184359,None,demo,001,2025-03-24_16h55.36.408,Bonnen2015_2afc,2024.2.4,None,2025-03-24 16h55.55.811292 -0400,
1.0,0.07,0.04,13,13,0,right,0.18956087494734675,None,0,13,13,16,15.366751999943517,,,,,,,,,15.345307999989018,15.366751999943517,15.421917583909817,15.683433958911337,15.786721999989823,16.049325291998684,16.08339583396446,16.08339583396446,16.119099458912387,16.28760458389297,right,0.18956087494734675,None,demo,001,2025-03-24_16h55.36.408,Bonnen2015_2afc,2024.2.4,None,2025-03-24 16h55.55.811292 -0400,
0.2593,0.27,-0.01,14,14,0,right,0.6813498749397695,None,0,14,14,29,16.338997666956857,,,,,,,,,16.314374708919786,16.338997666956857,16.407080583972856,16.667672249954194,16.75522066699341,17.016133999917656,17.050619208952412,17.050619208952412,17.088643083930947,17.73791791696567,right,0.6813498749397695,None,demo,001,2025-03-24_16h55.36.408,Bonnen2015_2afc,2024.2.4,None,2025-03-24 16h55.55.811292 -0400,
0.1489,0.47,-0.08,15,15,0,left,0.12271845794748515,None,0,15,15,42,17.796960458974354,,,,,,,,,17.769505583913997,17.796960458974354,17.855617916909978,18.11833212489728,18.18848354194779,18.4496845419053,18.50145333399996,18.50145333399996,18.53901408391539,18.637623624992557,left,0.12271845794748515,None,demo,001,2025-03-24_16h55.36.408,Bonnen2015_2afc,2024.2.4,None,2025-03-24 16h55.55.811292 -0400,
0.1045,0.67,0.02,16,16,0,left,0.2932272501057014,None,0,16,16,15,18.684004416922107,,,,,,,,,18.662131708930247,18.684004416922107,18.739084041910246,19.00024462491274,19.10392470890656,19.36422024993226,19.398709083907306,19.398709083907306,19.418510749936104,19.7042004999239,left,0.2932272501057014,None,demo,001,2025-03-24_16h55.36.408,Bonnen2015_2afc,2024.2.4,None,2025-03-24 16h55.55.811292 -0400,
0.2593,0.27,0.01,17,17,0,right,0.1630620830692351,None,0,17,17,9,19.760471541900188,,,,,,,,,19.73254587489646,19.760471541900188,19.816846374887973,20.08012920897454,20.167187208891846,20.429644624935463,20.46390812494792,20.46390812494792,20.502225167001598,20.637529624975286,right,0.1630620830692351,None,demo,001,2025-03-24_16h55.36.408,Bonnen2015_2afc,2024.2.4,None,2025-03-24 16h55.55.811292 -0400,
0.1045,0.67,-0.02,18,18,0,left,0.5099347920622677,None,0,18,18,35,20.685961499926634,,,,,,,,,20.662746499991044,20.685961499926634,20.743165041902103,21.00732612493448,21.094203291926533,21.35734533390496,21.392068541957997,21.392068541957997,21.43555208388716,21.904563416959718,left,0.5099347920622677,None,demo,001,2025-03-24_16h55.36.408,Bonnen2015_2afc,2024.2.4,None,2025-03-24 16h55.55.811292 -0400,
0.1489,0.47,0.16,19,19,0,right,0.1644646670902148,None,0,19,19,26,21.962227333919145,,,,,,,,,21.93636691698339,21.962227333919145,22.02381720894482,22.288622333901003,22.357872541993856,22.618732291972265,22.671530124964193,22.671530124964193,22.71892970893532,22.837680958909914,right,0.1644646670902148,None,demo,001,2025-03-24_16h55.36.408,Bonnen2015_2afc,2024.2.4,None,2025-03-24 16h55.55.811292 -0400,
0.1489,0.47,-0.01,20,20,0,right,0.24596229195594788,None,0,20,20,30,22.88613754196558,,,,,,,,,22.86283483391162,22.88613754196558,22.94173908396624,23.205408083973452,23.29210445890203,23.55260324990377,23.58856254199054,23.58856254199054,23.635672749951482,23.83769679197576,right,0.24596229195594788,None,demo,001,2025-03-24_16h55.36.408,Bonnen2015_2afc,2024.2.4,None,2025-03-24 16h55.55.811292 -0400,
0.1045,0.67,-0.04,21,21,0,left,0.18422091600950807,None,0,21,21,39,23.888193499995396,,,,,,,,,23.86413195892237,23.888193499995396,23.94402645889204,24.20786408393178,24.294671541894786,24.55693020892795,24.591695291921496,24.591695291921496,24.635627833893523,24.787791749928147,left,0.18422091600950807,None,demo,001,2025-03-24_16h55.36.408,Bonnen2015_2afc,2024.2.4,None,2025-03-24 16h55.55.811292 -0400,
0.1045,0.67,0.08,22,22,0,right,0.19931291602551937,None,0,22,22,23,24.837641749996692,,,,,,,,,24.813730041962117,24.837641749996692,24.89347295893822,25.157990833977237,25.244359458913095,25.507600833894685,25.541934874956496,25.541934874956496,25.585659791948274,25.754391333903186,right,0.19931291602551937,None,demo,001,2025-03-24_16h55.36.408,Bonnen2015_2afc,2024.2.4,None,2025-03-24 16h55.55.811292 -0400,
0.1045,0.67,0.01,23,23,0,left,0.31272799998987466,None,0,23,23,11,25.804379291948862,,,,,,,,,25.780428666970693,25.804379291948862,25.86024024989456,26.12534887494985,26.212287249974906,26.474976083962247,26.509529749979265,26.509529749979265,26.5522569589084,26.82551616698038,left,0.31272799998987466,None,demo,001,2025-03-24_16h55.36.408,Bonnen2015_2afc,2024.2.4,None,2025-03-24 16h55.55.811292 -0400,
0.1045,0.67,0.0,24,24,0,left,0.44134500005748123,None,0,24,24,3,26.87741949991323,,,,,,,,,26.853124291985296,26.87741949991323,26.934930249932222,27.20079649996478,27.28809674992226,27.549167083925568,27.583741499925964,27.583741499925964,27.621799458982423,28.03794799989555,left,0.44134500005748123,None,demo,001,2025-03-24_16h55.36.408,Bonnen2015_2afc,2024.2.4,None,2025-03-24 16h55.55.811292 -0400,
1.0,0.07,-0.02,25,25,0,left,0.409520750050433,None,0,25,25,32,28.09354504197836,,,,,,,,,28.068147624959238,28.09354504197836,28.15110137499869,28.4140736249974,28.5005990419304,28.764550374937244,28.79902849998325,28.79902849998325,28.8358782089781,29.221129999961704,left,0.409520750050433,None,demo,001,2025-03-24_16h55.36.408,Bonnen2015_2afc,2024.2.4,None,2025-03-24 16h55.55.811292 -0400,
0.1045,0.67,-0.16,26,26,0,left,0.3395326250465587,None,0,26,26,47,29.27705999999307,,,,,,,,,29.251342999981716,29.27705999999307,29.334964499925263,29.598421124974266,29.684952583978884,29.947923083906062,29.982506374944933,29.982506374944933,30.035549583961256,30.323719124891795,left,0.3395326250465587,None,demo,001,2025-03-24_16h55.36.408,Bonnen2015_2afc,2024.2.4,None,2025-03-24 16h55.55.811292 -0400,
0.2593,0.27,0.16,27,27,0,right,0.1500182079616934,None,0,27,27,25,30.37567841692362,,,,,,,,,30.351315249921754,30.37567841692362,30.434255499974824,30.697865374968387,30.785269333980978,31.048594208899885,31.083257166901603,31.083257166901603,31.121832499979064,31.237086249981076,right,0.1500182079616934,None,demo,001,2025-03-24_16h55.36.408,Bonnen2015_2afc,2024.2.4,None,2025-03-24 16h55.55.811292 -0400,
0.2593,0.27,-0.02,28,28,0,left,0.2500482079340145,None,0,28,28,33,31.2810744169401,,,,,,,,,31.259716749889776,31.2810744169401,31.35166191693861,31.6155850419309,31.70206466689706,31.965082416892983,31.9993622089969,31.9993622089969,32.01906699989922,32.254221624927595,left,0.2500482079340145,None,demo,001,2025-03-24_16h55.36.408,Bonnen2015_2afc,2024.2.4,None,2025-03-24 16h55.55.811292 -0400,
1.0,0.07,-0.08,29,29,0,left,0.20647045806981623,None,0,29,29,40,32.30638004199136,,,,,,,,,32.28190337494016,32.30638004199136,32.36371649999637,32.63029216695577,32.71724691695999,32.98045324999839,33.014891083934344,33.014891083934344,33.05216083396226,33.22346208395902,left,0.20647045806981623,None,demo,001,2025-03-24_16h55.36.408,Bonnen2015_2afc,2024.2.4,None,2025-03-24 16h55.55.811292 -0400,
0.2593,0.27,0.0,30,30,0,left,0.3167924169683829,None,0,30,30,1,33.272046333993785,,,,,,,,,33.24851254199166,33.272046333993785,33.32950087497011,33.59297987492755,33.67984133400023,33.94358691689558,33.97830424993299,33.97830424993299,34.018945333897136,34.30438387498725,left,0.3167924169683829,None,demo,001,2025-03-24_16h55.36.408,Bonnen2015_2afc,2024.2.4,None,2025-03-24 16h55.55.811292 -0400,
0.1489,0.47,0.005,31,31,0,right,0.8012929579708725,None,0,31,31,6,34.35675033391453,,,,,,,,,34.33264691696968,34.35675033391453,34.41296291688923,34.677828374900855,34.76485604199115,35.031190749956295,35.06557795894332,35.06557795894332,35.10264674993232,35.871459124959074,right,0.8012929579708725,None,demo,001,2025-03-24_16h55.36.408,Bonnen2015_2afc,2024.2.4,None,2025-03-24 16h55.55.811292 -0400,
0.1489,0.47,0.0,32,32,0,right,0.4599921660264954,None,0,32,32,2,35.93237399996724,,,,,,,,,35.90583204198629,35.93237399996724,35.9907301669009,36.25532333389856,36.325551083893515,36.58688766695559,36.621847249916755,36.621847249916755,36.685972458915785,37.0877873749705,right,0.4599921660264954,None,demo,001,2025-03-24_16h55.36.408,Bonnen2015_2afc,2024.2.4,None,2025-03-24 16h55.55.811292 -0400,
0.2593,0.27,-0.04,33,33,0,left,0.13314275001175702,None,0,33,33,37,37.144686583895236,,,,,,,,,37.11849370889831,37.144686583895236,37.2026253339136,37.46685533400159,37.55377358396072,37.81614454195369,37.85059058398474,37.85059058398474,37.88864733395167,37.98730137490202,left,0.13314275001175702,None,demo,001,2025-03-24_16h55.36.408,Bonnen2015_2afc,2024.2.4,None,2025-03-24 16h55.55.811292 -0400,
0.1489,0.47,-0.04,34,34,0,left,0.1439804999390617,None,0,34,34,38,38.03267041698564,,,,,,,,,38.01038058393169,38.03267041698564,38.1058324999176,38.36854379193392,38.44024337490555,38.70098949992098,38.752689874963835,38.752689874963835,38.785712124896236,38.904090166906826,left,0.1439804999390617,None,demo,001,2025-03-24_16h55.36.408,Bonnen2015_2afc,2024.2.4,None,2025-03-24 16h55.55.811292 -0400,
0.1045,0.67,-0.08,35,35,0,left,0.18210387497674674,None,0,35,35,43,38.95132891694084,,,,,,,,,38.928238416905515,38.95132891694084,39.00690008397214,39.27223604195751,39.35886874992866,39.62320445897058,39.65769033390097,39.65769033390097,39.702239416888915,39.8542715839576,left,0.18210387497674674,None,demo,001,2025-03-24_16h55.36.408,Bonnen2015_2afc,2024.2.4,None,2025-03-24 16h55.55.811292 -0400,
0.1489,0.47,-0.16,36,36,0,left,0.18763141694944352,None,0,36,36,46,39.90342291689012,,,,,,,,,39.87973954190966,39.90342291689012,39.960912583977915,40.22335212491453,40.31018808390945,40.57225037494209,40.60665383399464,40.60665383399464,40.652394374948926,40.80424641689751,left,0.18763141694944352,None,demo,001,2025-03-24_16h55.36.408,Bonnen2015_2afc,2024.2.4,None,2025-03-24 16h55.55.811292 -0400,
0.2593,0.27,-0.16,37,37,0,left,0.15133979101665318,None,0,37,37,45,40.854170083999634,,,,,,,,,40.83053870894946,40.854170083999634,40.920468624914065,41.1851176249329,41.25727079191711,41.51891420898028,41.55534079193603,41.55534079193603,41.602238999912515,41.72015708393883,left,0.15133979101665318,None,demo,001,2025-03-24_16h55.36.408,Bonnen2015_2afc,2024.2.4,None,2025-03-24 16h55.55.811292 -0400,
0.2593,0.27,0.02,38,38,0,left,0.42192329198587686,None,0,38,38,13,41.765943291946314,,,,,,,,,41.744406499899924,41.765943291946314,41.82055904192384,42.08372849994339,42.17075583396945,42.43209899996873,42.48395337490365,42.48395337490365,42.50488924991805,42.90776149998419,left,0.42192329198587686,None,demo,001,2025-03-24_16h55.36.408,Bonnen2015_2afc,2024.2.4,None,2025-03-24 16h55.55.811292 -0400,
0.2593,0.27,0.04,39,39,0,right,0.28886908292770386,None,0,39,39,17,42.96074954199139,,,,,,,,,42.93623837491032,42.96074954199139,43.01889249996748,43.28330729191657,43.37063799996395,43.632650499930605,43.667104166932404,43.667104166932404,43.70521695888601,43.95785895898007,right,0.28886908292770386,None,demo,001,2025-03-24_16h55.36.408,Bonnen2015_2afc,2024.2.4,None,2025-03-24 16h55.55.811292 -0400,
0.2593,0.27,-0.08,40,40,0,left,0.17580008402001113,None,0,40,40,41,44.00888987490907,,,,,,,,,43.98495899990667,44.00888987490907,44.06560512492433,44.32910487498157,44.41583949991036,44.678248083917424,44.71278133394662,44.71278133394662,44.75217229197733,44.89051800000016,left,0.17580008402001113,None,demo,001,2025-03-24_16h55.36.408,Bonnen2015_2afc,2024.2.4,None,2025-03-24 16h55.55.811292 -0400,
0.1489,0.47,-0.02,41,41,0,left,0.24351433396805078,None,0,41,41,34,44.93705533398315,,,,,,,,,44.91453679197002,44.93705533398315,44.99517945898697,45.25982999999542,45.346534208976664,45.6115199169144,45.64598187489901,45.64598187489901,45.685630541993305,45.89088241697755,left,0.24351433396805078,None,demo,001,2025-03-24_16h55.36.408,Bonnen2015_2afc,2024.2.4,None,2025-03-24 16h55.55.811292 -0400,
0.1045,0.67,-0.01,42,42,0,right,0.36404329095967114,None,0,42,42,31,45.940994416945614,,,,,,,,,45.916853124974295,45.940994416945614,45.996924041886814,46.260811458923854,46.34809087496251,46.61016020888928,46.64450087491423,46.64450087491423,46.68529720895458,47.02099654194899,right,0.36404329095967114,None,demo,001,2025-03-24_16h55.36.408,Bonnen2015_2afc,2024.2.4,None,2025-03-24 16h55.55.811292 -0400,
1.0,0.07,0.01,43,43,0,right,0.3300744170555845,None,0,43,43,8,47.07478345895652,,,,,,,,,47.05038712499663,47.07478345895652,47.133685541921295,47.383578249951825,47.486770874937065,47.750073999981396,47.78433270892128,47.78433270892128,47.82159958395641,48.1210625419626,right,0.3300744170555845,None,demo,001,2025-03-24_16h55.36.408,Bonnen2015_2afc,2024.2.4,None,2025-03-24 16h55.55.811292 -0400,
1.0,0.07,0.16,44,44,0,right,0.7371192499995232,None,0,44,44,24,48.175507374922745,,,,,,,,,48.15004204190336,48.175507374922745,48.23238591698464,48.497828124905936,48.583491208963096,48.84478541696444,48.87937258393504,48.87937258393504,48.91900341690052,49.621358791948296,right,0.7371192499995232,None,demo,001,2025-03-24_16h55.36.408,Bonnen2015_2afc,2024.2.4,None,2025-03-24 16h55.55.811292 -0400,
0.1045,0.67,0.005,45,45,0,left,0.4171023330418393,None,0,45,45,7,49.682136874995194,,,,,,,,,49.65561854199041,49.682136874995194,49.74157837498933,50.00766620889772,50.07702179194894,50.34104379196651,50.37578916689381,50.37578916689381,50.43555670895148,50.8043839589227,left,0.4171023330418393,None,demo,001,2025-03-24_16h55.36.408,Bonnen2015_2afc,2024.2.4,None,2025-03-24 16h55.55.811292 -0400,
1.0,0.07,0.005,46,46,0,right,0.2896022089989856,None,0,46,46,4,50.8603152919095,,,,,,,,,50.83495887496974,50.8603152919095,50.917320041917264,51.18256362492684,51.270625291974284,51.53176983399317,51.56617524998728,51.56617524998728,51.619238874991424,51.85707204195205,right,0.2896022089989856,None,demo,001,2025-03-24_16h55.36.408,Bonnen2015_2afc,2024.2.4,None,2025-03-24 16h55.55.811292 -0400,
1.0,0.07,-0.01,47,47,0,left,0.1554054580628872,None,0,47,47,28,51.908766874927096,,,,,,,,,51.88418491696939,51.908766874927096,51.965897124959156,52.2288924169261,52.31511020893231,52.57742383389268,52.61176079197321,52.61176079197321,52.652215166948736,52.77087883395143,left,0.1554054580628872,None,demo,001,2025-03-24_16h55.36.408,Bonnen2015_2afc,2024.2.4,None,2025-03-24 16h55.55.811292 -0400,
0.1045,0.67,0.01,48,0,1,left,0.3000354999676347,None,1,0,48,11,52.818309041904286,,,,,,,,,52.79524083388969,52.818309041904286,52.8737596248975,53.137416083947755,53.225177166983485,53.48834049992729,53.52256724995095,53.52256724995095,53.568884791922756,53.824009499978274,left,0.3000354999676347,None,demo,001,2025-03-24_16h55.36.408,Bonnen2015_2afc,2024.2.4,None,2025-03-24 16h55.55.811292 -0400,
1.0,0.07,-0.02,49,1,1,left,0.16717245802283287,None,1,1,49,32,53.876528708962724,,,,,,,,,53.85234666697215,53.876528708962724,53.93345979193691,54.19942808395717,54.28605229198001,54.54975049989298,54.58465391700156,54.58465391700156,54.62184787495062,54.7540627499111,left,0.16717245802283287,None,demo,001,2025-03-24_16h55.36.408,Bonnen2015_2afc,2024.2.4,None,2025-03-24 16h55.55.811292 -0400,
0.1045,0.67,-0.16,50,2,1,left,0.230869457940571,None,1,2,50,47,54.80416004196741,,,,,,,,,54.78014358389191,54.80416004196741,54.858861583983526,55.12370508396998,55.21153366693761,55.47528795897961,55.50989474996459,55.50989474996459,55.55226824991405,55.7542266669916,left,0.230869457940571,None,demo,001,2025-03-24_16h55.36.408,Bonnen2015_2afc,2024.2.4,None,2025-03-24 16h55.55.811292 -0400,
0.2593,0.27,-0.16,51,3,1,left,0.2001420829910785,None,1,3,51,45,55.805275499937125,,,,,,,,,55.78127920895349,55.805275499937125,55.87074979196768,56.13524533389136,56.206573249888606,56.47064254200086,56.505951583967544,56.505951583967544,56.552308541955426,56.70931141695473,left,0.2001420829910785,None,demo,001,2025-03-24_16h55.36.408,Bonnen2015_2afc,2024.2.4,None,2025-03-24 16h55.55.811292 -0400,
1.0,0.07,-0.04,52,4,1,left,0.1466837499756366,None,1,4,52,36,56.75877849990502,,,,,,,,,56.7349609589437,56.75877849990502,56.814504874986596,57.07950087497011,57.166853791917674,57.43047283391934,57.46504245896358,57.46504245896358,57.50181345897727,57.620546958991326,left,0.1466837499756366,None,demo,001,2025-03-24_16h55.36.408,Bonnen2015_2afc,2024.2.4,None,2025-03-24 16h55.55.811292 -0400,
0.1045,0.67,0.0,53,5,1,left,0.30254808301106095,None,1,5,53,3,57.66705037490465,,,,,,,,,57.64445924991742,57.66705037490465,57.72258224990219,57.987082208972424,58.074667708948255,58.337222916889004,58.37272295891307,58.37272295891307,58.41895304189529,58.68761695898138,left,0.30254808301106095,None,demo,001,2025-03-24_16h55.36.408,Bonnen2015_2afc,2024.2.4,None,2025-03-24 16h55.55.811292 -0400,
0.1045,0.67,0.04,54,6,1,right,0.4380745419766754,None,1,6,54,19,58.73999670892954,,,,,,,,,58.71574941696599,58.73999670892954,58.79753291700035,59.06401133397594,59.15143291698769,59.415699958917685,59.45019920892082,59.45019920892082,59.48841199988965,59.89113266696222,right,0.4380745419766754,None,demo,001,2025-03-24_16h55.36.408,Bonnen2015_2afc,2024.2.4,None,2025-03-24 16h55.55.811292 -0400,
1.0,0.07,0.02,55,7,1,right,0.12956200004555285,None,1,7,55,12,59.946503791958094,,,,,,,,,59.92134766699746,59.946503791958094,60.00502208399121,60.26907062495593,60.35790883388836,60.62258958397433,60.659331499948166,60.659331499948166,60.702232666895725,60.790185916936025,right,0.12956200004555285,None,demo,001,2025-03-24_16h55.36.408,Bonnen2015_2afc,2024.2.4,None,2025-03-24 16h55.55.811292 -0400,
0.2593,0.27,-0.01,56,8,1,left,0.19703299994580448,None,1,8,56,29,60.83542241691612,,,,,,,,,60.81330166698899,60.83542241691612,60.89080816693604,61.155522499931976,61.242885708925314,61.50759058399126,61.54246308398433,61.54246308398433,61.58560166694224,61.74258891690988,left,0.19703299994580448,None,demo,001,2025-03-24_16h55.36.408,Bonnen2015_2afc,2024.2.4,None,2025-03-24 16h55.55.811292 -0400,
0.1489,0.47,0.04,57,9,1,right,0.21058249997440726,None,1,9,57,18,61.79202841699589,,,,,,,,,61.76817204197869,61.79202841699589,61.84773029189091,62.11283962498419,62.199863333953544,62.46494258393068,62.49938237492461,62.49938237492461,62.53921883390285,62.72103629191406,right,0.21058249997440726,None,demo,001,2025-03-24_16h55.36.408,Bonnen2015_2afc,2024.2.4,None,2025-03-24 16h55.55.811292 -0400,
0.1045,0.67,-0.02,58,10,1,right,0.37612541706766933,None,1,10,58,35,62.77186345891096,,,,,,,,,62.74777287489269,62.77186345891096,62.82843320898246,63.09410704195034,63.18248895893339,63.44516245892737,63.47971916699316,63.47971916699316,63.518896958907135,63.857821249985136,right,0.37612541706766933,None,demo,001,2025-03-24_16h55.36.408,Bonnen2015_2afc,2024.2.4,None,2025-03-24 16h55.55.811292 -0400,
0.1489,0.47,0.005,59,11,1,right,0.20737395901232958,None,1,11,59,6,63.91223762498703,,,,,,,,,63.88709591689985,63.91223762498703,63.97089174995199,64.23503099998925,64.32326420897152,64.5857652919367,64.62243770889472,64.62243770889472,64.66893095895648,64.8375882919645,right,0.20737395901232958,None,demo,001,2025-03-24_16h55.36.408,Bonnen2015_2afc,2024.2.4,None,2025-03-24 16h55.55.811292 -0400,
0.1045,0.67,-0.04,60,12,1,left,0.2177150830393657,None,1,12,60,39,64.88885866699275,,,,,,,,,64.864323124988,64.88885866699275,64.95429499994498,65.21808774990495,65.288284249953,65.55110729194712,65.60420633398462,65.60420633398462,65.63563795899972,65.82419258391019,left,0.2177150830393657,None,demo,001,2025-03-24_16h55.36.408,Bonnen2015_2afc,2024.2.4,None,2025-03-24 16h55.55.811292 -0400,
0.1045,0.67,0.02,61,13,1,right,0.2351563749834895,None,1,13,61,15,65.87407408398576,,,,,,,,,65.85058333398774,65.87407408398576,65.93062254192773,66.19636670895852,66.28441487497184,66.54840849991888,66.58293441694696,66.58293441694696,66.62158658390399,66.82086983392946,right,0.2351563749834895,None,demo,001,2025-03-24_16h55.36.408,Bonnen2015_2afc,2024.2.4,None,2025-03-24 16h55.55.811292 -0400,
0.2593,0.27,0.005,62,14,1,right,0.27543012506794184,None,1,14,62,5,66.87172624992672,,,,,,,,,66.84726329194382,66.87172624992672,66.92826187494211,67.19456129195169,67.28224245889578,67.54578316689003,67.58045362494886,67.58045362494886,67.61889387492556,67.85734658397269,right,0.27543012506794184,None,demo,001,2025-03-24_16h55.36.408,Bonnen2015_2afc,2024.2.4,None,2025-03-24 16h55.55.811292 -0400,
1.0,0.07,-0.01,63,15,1,left,0.27830883394926786,None,1,15,63,28,67.90844679193106,,,,,,,,,67.88464949990157,67.90844679193106,67.96542358398438,68.23116745892912,68.31830599997193,68.58178587490693,68.61613654193934,68.61613654193934,68.65486870892346,68.90417974989396,left,0.27830883394926786,None,demo,001,2025-03-24_16h55.36.408,Bonnen2015_2afc,2024.2.4,None,2025-03-24 16h55.55.811292 -0400,
0.2593,0.27,0.04,64,16,1,right,0.1470502910669893,None,1,16,64,17,68.95769199996721,,,,,,,,,68.93277254200075,68.95769199996721,69.01453533396125,69.27872287493665,69.36542237491813,69.62926979199983,69.66377958399244,69.66377958399244,69.702131500002,69.8208718339447,right,0.1470502910669893,None,demo,001,2025-03-24_16h55.36.408,Bonnen2015_2afc,2024.2.4,None,2025-03-24 16h55.55.811292 -0400,
1.0,0.07,-0.08,65,17,1,left,0.1913759169401601,None,1,17,65,40,69.86983049998526,,,,,,,,,69.84489337494597,69.86983049998526,69.92424729198683,70.17611945897806,70.28195312491152,70.54630679194815,70.58093804190867,70.58093804190867,70.61883604188915,70.77369683398865,left,0.1913759169401601,None,demo,001,2025-03-24_16h55.36.408,Bonnen2015_2afc,2024.2.4,None,2025-03-24 16h55.55.811292 -0400,
0.2593,0.27,-0.08,66,18,1,left,0.22024295793380588,None,1,18,66,41,70.82175429188646,,,,,,,,,70.79864599998109,70.82175429188646,70.87753099994734,71.14394287497271,71.23082195897587,71.49486187496223,71.52941624994855,71.52941624994855,71.56896749988664,71.75430174998473,left,0.22024295793380588,None,demo,001,2025-03-24_16h55.36.408,Bonnen2015_2afc,2024.2.4,None,2025-03-24 16h55.55.811292 -0400,
0.1489,0.47,0.0,67,19,1,right,0.2333784169750288,None,1,19,67,2,71.8047767499229,,,,,,,,,71.78101591696031,71.8047767499229,71.87078587489668,72.13472654193174,72.20690129196737,72.47057274996769,72.50598099990748,72.50598099990748,72.55235458398238,72.74087012489326,right,0.2333784169750288,None,demo,001,2025-03-24_16h55.36.408,Bonnen2015_2afc,2024.2.4,None,2025-03-24 16h55.55.811292 -0400,
1.0,0.07,0.04,68,20,1,right,0.25273108400870115,None,1,20,68,16,72.79293870890979,,,,,,,,,72.76790170895401,72.79293870890979,72.84991504193749,73.11677924997639,73.2053230839083,73.4678551669931,73.50238029193133,73.50238029193133,73.55226187489461,73.75758229196072,right,0.25273108400870115,None,demo,001,2025-03-24_16h55.36.408,Bonnen2015_2afc,2024.2.4,None,2025-03-24 16h55.55.811292 -0400,
1.0,0.07,0.0,69,21,1,right,0.48188129207119346,None,1,21,69,0,73.80897604196798,,,,,,,,,73.78496249997988,73.80897604196798,73.86608599999454,74.1305399169214,74.21833333396353,74.48147199989762,74.51584199990612,74.51584199990612,74.568959583994,75.00435633398592,right,0.48188129207119346,None,demo,001,2025-03-24_16h55.36.408,Bonnen2015_2afc,2024.2.4,None,2025-03-24 16h55.55.811292 -0400,
0.2593,0.27,-0.04,70,22,1,left,0.17473783297464252,None,1,22,70,37,75.06198245892301,,,,,,,,,75.036025666981,75.06198245892301,75.1203684998909,75.38445320900064,75.45552995894104,75.71779183391482,75.7694509999128,75.7694509999128,75.81895283400081,75.95417812489904,left,0.17473783297464252,None,demo,001,2025-03-24_16h55.36.408,Bonnen2015_2afc,2024.2.4,None,2025-03-24 16h55.55.811292 -0400,
1.0,0.07,0.16,71,23,1,right,0.18910970794968307,None,1,23,71,24,76.00266424997244,,,,,,,,,75.97947291692253,76.00266424997244,76.05846908397507,76.32422099995892,76.41171020898037,76.67421308392659,76.70899966696743,76.70899966696743,76.75226974999532,76.90358695900068,right,0.18910970794968307,None,demo,001,2025-03-24_16h55.36.408,Bonnen2015_2afc,2024.2.4,None,2025-03-24 16h55.55.811292 -0400,
0.1045,0.67,0.005,72,24,1,right,0.8161712910514325,None,1,24,72,7,76.95214408391621,,,,,,,,,76.92886241700035,76.95214408391621,77.00794116698671,77.27181283396203,77.35882324993145,77.62201695889235,77.65635270893108,77.65635270893108,77.70225416694302,78.47453962499276,right,0.8161712910514325,None,demo,001,2025-03-24_16h55.36.408,Bonnen2015_2afc,2024.2.4,None,2025-03-24 16h55.55.811292 -0400,
0.1045,0.67,0.08,73,25,1,right,0.28398033301346004,None,1,25,73,23,78.53208974993322,,,,,,,,,78.50565470894799,78.53208974993322,78.5907429169165,78.85709370893892,78.92671445896849,79.18904879188631,79.24082766694482,79.24082766694482,79.28549679194111,79.53759312490001,right,0.28398033301346004,None,demo,001,2025-03-24_16h55.36.408,Bonnen2015_2afc,2024.2.4,None,2025-03-24 16h55.55.811292 -0400,
0.2593,0.27,0.02,74,26,1,right,0.2372250830521807,None,1,26,74,13,79.5902149999747,,,,,,,,,79.56568974989932,79.5902149999747,79.64762016700115,79.91221041698009,79.99897924996912,80.26162512495648,80.29635999992024,80.29635999992024,80.33557362493593,80.53694283391815,right,0.2372250830521807,None,demo,001,2025-03-24_16h55.36.408,Bonnen2015_2afc,2024.2.4,None,2025-03-24 16h55.55.811292 -0400,
0.1489,0.47,0.02,75,27,1,right,0.2598563330247998,None,1,27,75,14,80.58810658392031,,,,,,,,,80.56401908397675,80.58810658392031,80.64469820889644,80.8945549998898,80.99879995896481,81.26080149994232,81.2956227499526,81.2956227499526,81.33574404194951,81.55669270898215,right,0.2598563330247998,None,demo,001,2025-03-24_16h55.36.408,Bonnen2015_2afc,2024.2.4,None,2025-03-24 16h55.55.811292 -0400,
0.1489,0.47,-0.08,76,28,1,left,0.3585988749982789,None,1,28,76,42,81.60752874996979,,,,,,,,,81.58343658398371,81.60752874996979,81.6657159589231,81.92921229195781,82.01690816693008,82.2791282919934,82.31369595893193,82.31369595893193,82.35225574998185,82.67452170897741,left,0.3585988749982789,None,demo,001,2025-03-24_16h55.36.408,Bonnen2015_2afc,2024.2.4,None,2025-03-24 16h55.55.811292 -0400,
0.1045,0.67,0.16,77,29,1,right,0.45388349995482713,None,1,29,77,27,82.72844004188664,,,,,,,,,82.70329149998724,82.72844004188664,82.78669204190373,83.05035516689532,83.13705762499012,83.40064174996223,83.43509674991947,83.43509674991947,83.48560787492897,83.89050374994986,right,0.45388349995482713,None,demo,001,2025-03-24_16h55.36.408,Bonnen2015_2afc,2024.2.4,None,2025-03-24 16h55.55.811292 -0400,
1.0,0.07,0.08,78,30,1,right,0.1921498749870807,None,1,30,78,20,83.94544424989726,,,,,,,,,83.92030116694514,83.94544424989726,84.0043923339108,84.26716345897876,84.35388204199262,84.61612495896406,84.65090387489181,84.65090387489181,84.70216362492647,84.85426683397964,right,0.1921498749870807,None,demo,001,2025-03-24_16h55.36.408,Bonnen2015_2afc,2024.2.4,None,2025-03-24 16h55.55.811292 -0400,
0.1489,0.47,-0.02,79,31,1,right,0.38574416702613235,None,1,31,79,34,84.90422662498895,,,,,,,,,84.88029904197901,84.90422662498895,84.96021412499249,85.22445945895743,85.31135999993421,85.5741960000014,85.60910229198635,85.60910229198635,85.6521990839392,86.00465329189319,right,0.38574416702613235,None,demo,001,2025-03-24_16h55.36.408,Bonnen2015_2afc,2024.2.4,None,2025-03-24 16h55.55.811292 -0400,
0.2593,0.27,0.08,80,32,1,right,0.10883550008293241,None,1,32,80,21,86.05869249999523,,,,,,,,,86.03389904194046,86.05869249999523,86.11672108399216,86.38130770891439,86.46832999994513,86.73253933398519,86.76709999993909,86.76709999993909,86.80513858399354,86.88703987491317,right,0.10883550008293241,None,demo,001,2025-03-24_16h55.36.408,Bonnen2015_2afc,2024.2.4,None,2025-03-24 16h55.55.811292 -0400,
1.0,0.07,-0.16,81,33,1,left,0.19047204195521772,None,1,33,81,44,86.93057016690727,,,,,,,,,86.90978587488644,86.93057016690727,87.0010982499225,87.26578037498984,87.35350645892322,87.61683454189915,87.65163670899346,87.65163670899346,87.67207620898262,87.85441941698082,left,0.19047204195521772,None,demo,001,2025-03-24_16h55.36.408,Bonnen2015_2afc,2024.2.4,None,2025-03-24 16h55.55.811292 -0400,
0.2593,0.27,0.01,82,34,1,right,0.12294575001578778,None,1,34,82,9,87.90538670890965,,,,,,,,,87.88115570892114,87.90538670890965,87.9612044999376,88.22507316689007,88.31212870893069,88.57473087497056,88.60986504191533,88.60986504191533,88.6524334999267,88.73687083390541,right,0.12294575001578778,None,demo,001,2025-03-24_16h55.36.408,Bonnen2015_2afc,2024.2.4,None,2025-03-24 16h55.55.811292 -0400,
0.2593,0.27,0.16,83,35,1,right,0.15319291700143367,None,1,35,83,25,88.78071537497453,,,,,,,,,88.75958779198118,88.78071537497453,88.85166354198009,89.11692545888945,89.20677433395758,89.46964008396026,89.48735774995293,89.48735774995293,89.53553299990017,89.65427320892923,right,0.15319291700143367,None,demo,001,2025-03-24_16h55.36.408,Bonnen2015_2afc,2024.2.4,None,2025-03-24 16h55.55.811292 -0400,
0.1045,0.67,-0.08,84,36,1,left,0.24310816708020866,None,1,36,84,43,89.7023559169611,,,,,,,,,89.6796637919033,89.7023559169611,89.75854408391751,90.02434979192913,90.1117344169179,90.37811058398802,90.41300424991641,90.41300424991641,90.45225004199892,90.65815095894504,left,0.24310816708020866,None,demo,001,2025-03-24_16h55.36.408,Bonnen2015_2afc,2024.2.4,None,2025-03-24 16h55.55.811292 -0400,
0.1489,0.47,0.16,85,37,1,right,0.10843987495172769,None,1,37,85,26,90.70985491690226,,,,,,,,,90.68570133391768,90.70985491690226,90.76691816688981,91.03202337492257,91.11920633399859,91.38318999996409,91.4179433749523,91.4179433749523,91.46886449994054,91.5368951249402,right,0.10843987495172769,None,demo,001,2025-03-24_16h55.36.408,Bonnen2015_2afc,2024.2.4,None,2025-03-24 16h55.55.811292 -0400,
0.1045,0.67,-0.01,86,38,1,right,0.27106408297549933,None,1,38,86,31,91.5798742499901,,,,,,,,,91.5595424589701,91.5798742499901,91.65131966699846,91.91727720899507,92.0067198749166,92.26955437497236,92.28714262496214,92.28714262496214,92.33586679189466,92.56176979199518,right,0.27106408297549933,None,demo,001,2025-03-24_16h55.36.408,Bonnen2015_2afc,2024.2.4,None,2025-03-24 16h55.55.811292 -0400,
0.1489,0.47,-0.16,87,39,1,left,0.18931583303492516,None,1,39,87,46,92.61164454196114,,,,,,,,,92.5880698749097,92.61164454196114,92.66943987493869,92.93272962491028,93.02006987493951,93.28390408388805,93.31866279197857,93.31866279197857,93.3689406249905,93.52089229191188,left,0.18931583303492516,None,demo,001,2025-03-24_16h55.36.408,Bonnen2015_2afc,2024.2.4,None,2025-03-24 16h55.55.811292 -0400,
1.0,0.07,0.01,88,40,1,right,0.2858240419300273,None,1,40,88,8,93.5708619588986,,,,,,,,,93.5471021248959,93.5708619588986,93.62645170895848,93.89106770895887,93.9776413749205,94.24107304192148,94.27534920896869,94.27534920896869,94.31896895891987,94.57114074996207,right,0.2858240419300273,None,demo,001,2025-03-24_16h55.36.408,Bonnen2015_2afc,2024.2.4,None,2025-03-24 16h55.55.811292 -0400,
0.1489,0.47,0.08,89,41,1,right,0.18361649999860674,None,1,41,89,22,94.62392249994446,,,,,,,,,94.59913124993909,94.62392249994446,94.68144491699059,94.94711724994704,95.03439691697713,95.29871191689745,95.33324645890389,95.33324645890389,95.37131462490652,95.52082558395341,right,0.18361649999860674,None,demo,001,2025-03-24_16h55.36.408,Bonnen2015_2afc,2024.2.4,None,2025-03-24 16h55.55.811292 -0400,
0.2593,0.27,0.0,90,42,1,right,0.4631561670685187,None,1,42,90,1,95.57076254196,,,,,,,,,95.54682974994648,95.57076254196,95.62583308399189,95.8911333339056,95.97795037494507,96.24085833400022,96.27532287489157,96.27532287489157,96.31895541690756,96.74042508390266,right,0.4631561670685187,None,demo,001,2025-03-24_16h55.36.408,Bonnen2015_2afc,2024.2.4,None,2025-03-24 16h55.55.811292 -0400,
0.1489,0.47,-0.01,91,43,1,right,0.28858000005129725,None,1,43,91,30,96.79556937492453,,,,,,,,,96.77022633398883,96.79556937492453,96.85444812499918,97.11917416693177,97.19142920896411,97.45357258396689,97.50669929198921,97.50669929198921,97.5522748749936,97.80431729194243,right,0.28858000005129725,None,demo,001,2025-03-24_16h55.36.408,Bonnen2015_2afc,2024.2.4,None,2025-03-24 16h55.55.811292 -0400,
0.2593,0.27,-0.02,92,44,1,left,0.18342120898887515,None,1,44,92,33,97.85685104189906,,,,,,,,,97.8323792089941,97.85685104189906,97.92153962492011,98.18495708389673,98.25656587490812,98.52049579191953,98.5556662499439,98.5556662499439,98.60227149992716,98.74032924999483,left,0.18342120898887515,None,demo,001,2025-03-24_16h55.36.408,Bonnen2015_2afc,2024.2.4,None,2025-03-24 16h55.55.811292 -0400,
0.1489,0.47,-0.04,93,45,1,left,0.2229270830284804,None,1,45,93,38,98.78640854195692,,,,,,,,,98.76441954192705,98.78640854195692,98.84101287496742,99.10627779189963,99.19389341690112,99.45650916697923,99.49112754198723,99.49112754198723,99.5355656669708,99.72092424996663,left,0.2229270830284804,None,demo,001,2025-03-24_16h55.36.408,Bonnen2015_2afc,2024.2.4,None,2025-03-24 16h55.55.811292 -0400,
1.0,0.07,0.005,94,46,1,right,0.19708391593303531,None,1,46,94,4,99.77198195899837,,,,,,,,,99.74795308394823,99.77198195899837,99.82718329189811,100.09199112490751,100.17870229191612,100.4444991669152,100.47912729193922,100.47912729193922,100.51890099991579,100.68751374993008,right,0.19708391593303531,None,demo,001,2025-03-24_16h55.36.408,Bonnen2015_2afc,2024.2.4,None,2025-03-24 16h55.55.811292 -0400,
0.1489,0.47,0.01,95,47,1,left,0.3278009589994326,None,1,47,95,10,100.73652120889165,,,,,,,,,100.71331041690428,100.73652120889165,100.79303620895371,101.05844524991699,101.14566483395174,101.40979508392047,101.44431737496052,101.44431737496052,101.48551299993414,101.77425070898607,left,0.3278009589994326,None,demo,001,2025-03-24_16h55.36.408,Bonnen2015_2afc,2024.2.4,None,2025-03-24 16h55.55.811292 -0400,
1.0,0.07,-0.16,96,0,2,left,0.19955420901533216,None,2,0,96,44,101.82595291698817,,,,,,,,,101.80190524994396,101.82595291698817,101.88766729191411,102.1526813339442,102.24159358395264,102.50533354189247,102.53979079192504,102.53979079192504,102.58551720890682,102.74136995896697,left,0.19955420901533216,None,demo,001,2025-03-24_16h55.36.408,Bonnen2015_2afc,2024.2.4,None,2025-03-24 16h55.55.811292 -0400,
1.0,0.07,0.02,97,1,2,right,0.12698033300694078,None,2,1,97,12,102.79063858394511,,,,,,,,,102.76749224995729,102.79063858394511,102.8468970839167,103.11076258390676,103.19753079197835,103.4619977088878,103.49645054189023,103.49645054189023,103.5355736669153,103.63728599995375,right,0.12698033300694078,None,demo,001,2025-03-24_16h55.36.408,Bonnen2015_2afc,2024.2.4,None,2025-03-24 16h55.55.811292 -0400,
1.0,0.07,0.01,98,2,2,right,0.16549687494989485,None,2,2,98,8,103.68291270895861,,,,,,,,,103.6605088749202,103.68291270895861,103.75791170890443,104.02278416696936,104.09288016695064,104.35864908399526,104.39355787495151,104.39355787495151,104.43553745897952,104.57057645893656,right,0.16549687494989485,None,demo,001,2025-03-24_16h55.36.408,Bonnen2015_2afc,2024.2.4,None,2025-03-24 16h55.55.811292 -0400,
0.1489,0.47,-0.02,99,3,2,left,0.20717954193241894,None,2,3,99,34,104.61960062489379,,,,,,,,,104.59620937495492,104.61960062489379,104.6750104589155,104.92544012493454,105.0295863338979,105.29274829197675,105.32689149992075,105.32689149992075,105.36909654189367,105.53784920892213,left,0.20717954193241894,None,demo,001,2025-03-24_16h55.36.408,Bonnen2015_2afc,2024.2.4,None,2025-03-24 16h55.55.811292 -0400,
1.0,0.07,0.005,100,4,2,right,0.2643097910331562,None,2,4,100,4,105.58768858399708,,,,,,,,,105.56381495890673,105.58768858399708,105.64388541691005,105.90854091697838,105.99568441696465,106.25954595895018,106.29420491692144,106.29420491692144,106.33563020895235,106.56212387490086,right,0.2643097910331562,None,demo,001,2025-03-24_16h55.36.408,Bonnen2015_2afc,2024.2.4,None,2025-03-24 16h55.55.811292 -0400,
0.1045,0.67,0.01,101,5,2,left,0.5059325420297682,None,2,5,101,11,106.61221424990799,,,,,,,,,106.58818429196253,106.61221424990799,106.6694645419484,106.93307699996512,107.02028483396862,107.28443929192144,107.31898074992932,107.31898074992932,107.36901987495366,107.83770162495784,left,0.5059325420297682,None,demo,001,2025-03-24_16h55.36.408,Bonnen2015_2afc,2024.2.4,None,2025-03-24 16h55.55.811292 -0400,
0.2593,0.27,-0.02,102,6,2,left,0.26780141599010676,None,2,6,102,33,107.89474624989089,,,,,,,,,107.86927516688593,107.89474624989089,107.95400016696658,108.21767529193312,108.2887625839794,108.5516052088933,108.60422512493096,108.60422512493096,108.65225808392279,108.8736606669845,left,0.26780141599010676,None,demo,001,2025-03-24_16h55.36.408,Bonnen2015_2afc,2024.2.4,None,2025-03-24 16h55.55.811292 -0400,
0.1489,0.47,-0.01,103,7,2,left,0.3825873750029132,None,2,7,103,30,108.92388308397494,,,,,,,,,108.90027024992742,108.92388308397494,108.98042324988637,109.24559558392502,109.33213091699872,109.59559283393901,109.63018058391754,109.63018058391754,109.66894341690931,110.02097395888995,left,0.3825873750029132,None,demo,001,2025-03-24_16h55.36.408,Bonnen2015_2afc,2024.2.4,None,2025-03-24 16h55.55.811292 -0400,
0.1489,0.47,0.08,104,8,2,right,0.24576820898801088,None,2,8,104,22,110.07478729193099,,,,,,,,,110.04952766699716,110.07478729193099,110.13721274991985,110.40066449996084,110.49127274996135,110.7551780838985,110.77261983393691,110.77261983393691,110.8189334589988,111.02089066698682,right,0.24576820898801088,None,demo,001,2025-03-24_16h55.36.408,Bonnen2015_2afc,2024.2.4,None,2025-03-24 16h55.55.811292 -0400,
0.1045,0.67,0.16,105,9,2,right,0.5004701670259237,None,2,9,105,27,111.0721195419319,,,,,,,,,111.04811195889488,111.0721195419319,111.13175149995368,111.39504937489983,111.48169774992857,111.74836433399469,111.78318041691091,111.78318041691091,111.82165362499654,112.2875192919746,right,0.5004701670259237,None,demo,001,2025-03-24_16h55.36.408,Bonnen2015_2afc,2024.2.4,None,2025-03-24 16h55.55.811292 -0400,
0.2593,0.27,-0.04,106,10,2,left,0.2488370839273557,None,2,10,106,37,112.33753754198551,,,,,,,,,112.31539662496652,112.33753754198551,112.39361837494653,112.65784599992912,112.74539174989332,113.00817658391315,113.04303612490185,113.04303612490185,113.08548916690052,113.2943844589172,left,0.2488370839273557,None,demo,001,2025-03-24_16h55.36.408,Bonnen2015_2afc,2024.2.4,None,2025-03-24 16h55.55.811292 -0400,
0.2593,0.27,0.16,107,11,2,right,0.19141362502705306,None,2,11,107,25,113.3438462499762,,,,,,,,,113.31961691693868,113.3438462499762,113.39957591693383,113.6642448749626,113.75178212497849,114.01733533397783,114.05217374989297,114.05217374989297,114.10248570889235,114.25484587496612,right,0.19141362502705306,None,demo,001,2025-03-24_16h55.36.408,Bonnen2015_2afc,2024.2.4,None,2025-03-24 16h55.55.811292 -0400,
0.1045,0.67,0.08,108,12,2,right,0.29438466706778854,None,2,12,108,23,114.30595991690643,,,,,,,,,114.28172554192133,114.30595991690643,114.36194979189895,114.62721304199658,114.71437112498097,114.97762729192618,115.012204333907,115.012204333907,115.05224812496454,115.32100166694727,right,0.29438466706778854,None,demo,001,2025-03-24_16h55.36.408,Bonnen2015_2afc,2024.2.4,None,2025-03-24 16h55.55.811292 -0400,
0.1045,0.67,0.0,109,13,2,right,0.2812717080814764,None,2,13,109,3,115.37429341697134,,,,,,,,,115.34925316693261,115.37429341697134,115.43145941698458,115.6984963339055,115.7858735419577,116.0501036249334,116.0843628749717,116.0843628749717,116.12179312494118,116.37087770889048,right,0.2812717080814764,None,demo,001,2025-03-24_16h55.36.408,Bonnen2015_2afc,2024.2.4,None,2025-03-24 16h55.55.811292 -0400,
1.0,0.07,-0.01,110,14,2,left,0.19962591596413404,None,2,14,110,28,116.42354729189537,,,,,,,,,116.39871954196133,116.42354729189537,116.48095854197163,116.7310252089519,116.83549308392685,117.09806970891077,117.13287604192737,117.13287604192737,117.17213799990714,117.33752412488684,left,0.19962591596413404,None,demo,001,2025-03-24_16h55.36.408,Bonnen2015_2afc,2024.2.4,None,2025-03-24 16h55.55.811292 -0400,
0.1045,0.67,-0.08,111,15,2,left,0.22369987494312227,None,2,15,111,43,117.38613912498113,,,,,,,,,117.36311366700102,117.38613912498113,117.44201408396475,117.70804466691334,117.79496749991085,118.05688883399125,118.09197437495459,118.09197437495459,118.1355510839494,118.32095958397258,left,0.22369987494312227,None,demo,001,2025-03-24_16h55.36.408,Bonnen2015_2afc,2024.2.4,None,2025-03-24 16h55.55.811292 -0400,
1.0,0.07,-0.04,112,16,2,left,0.3029114999808371,None,2,16,112,36,118.37163312488701,,,,,,,,,118.34758833399974,118.37163312488701,118.42728424991947,118.69108887494076,118.77805824996904,119.04090524988715,119.07565570890438,119.07565570890438,119.11890862497967,119.38782554189675,left,0.3029114999808371,None,demo,001,2025-03-24_16h55.36.408,Bonnen2015_2afc,2024.2.4,None,2025-03-24 16h55.55.811292 -0400,
0.1045,0.67,0.02,113,17,2,right,0.4155062499921769,None,2,17,113,15,119.44207966700196,,,,,,,,,119.41674070898443,119.44207966700196,119.49865991692059,119.76423616695683,119.85097316699103,120.11579304200131,120.15063658391591,120.15063658391591,120.18865499994718,120.57100870891009,right,0.4155062499921769,None,demo,001,2025-03-24_16h55.36.408,Bonnen2015_2afc,2024.2.4,None,2025-03-24 16h55.55.811292 -0400,
0.1045,0.67,-0.02,114,18,2,left,0.27138245792593807,None,2,18,114,35,120.62492204189766,,,,,,,,,120.5998703748919,120.62492204189766,120.68253466696478,120.94853804190643,121.03683816699777,121.30118316691369,121.33566962496843,121.33566962496843,121.3855997499777,121.62085062498227,left,0.27138245792593807,None,demo,001,2025-03-24_16h55.36.408,Bonnen2015_2afc,2024.2.4,None,2025-03-24 16h55.55.811292 -0400,
1.0,0.07,-0.02,115,19,2,left,0.22213879192713648,None,2,19,115,32,121.67391583393328,,,,,,,,,121.64932541688904,121.67391583393328,121.73197149997577,121.99605845892802,122.08402987499721,122.34828254196327,122.38371570897289,122.38371570897289,122.42191849998198,122.60702654195484,left,0.22213879192713648,None,demo,001,2025-03-24_16h55.36.408,Bonnen2015_2afc,2024.2.4,None,2025-03-24 16h55.55.811292 -0400,
0.1489,0.47,0.0,116,20,2,left,0.614344833069481,None,2,20,116,2,122.65647574991453,,,,,,,,,122.6328187918989,122.65647574991453,122.71380158397369,122.96595837490167,123.07179154199548,123.33783870888874,123.37554079189431,123.37554079189431,123.40220458398107,124.00459187489469,left,0.614344833069481,None,demo,001,2025-03-24_16h55.36.408,Bonnen2015_2afc,2024.2.4,None,2025-03-24 16h55.55.811292 -0400,
0.1489,0.47,0.01,117,21,2,left,0.2522359590511769,None,2,21,117,10,124.06141558394302,,,,,,,,,124.03619970893487,124.06141558394302,124.11904174997471,124.3844657499576,124.47325633396395,124.73858712497167,124.75601416698191,124.75601416698191,124.81881929188967,125.0209055839805,left,0.2522359590511769,None,demo,001,2025-03-24_16h55.36.408,Bonnen2015_2afc,2024.2.4,None,2025-03-24 16h55.55.811292 -0400,
1.0,0.07,0.08,118,22,2,right,0.1459325000178069,None,2,22,118,20,125.07282041700091,,,,,,,,,125.04826270893682,125.07282041700091,125.12959333392791,125.39532570890151,125.48282108397689,125.7329266249435,125.78625308396295,125.78625308396295,125.81896320893429,125.93747370899655,right,0.1459325000178069,None,demo,001,2025-03-24_16h55.36.408,Bonnen2015_2afc,2024.2.4,None,2025-03-24 16h55.55.811292 -0400,
0.1045,0.67,-0.01,119,23,2,left,0.33244137500878423,None,2,23,119,31,125.98619124991819,,,,,,,,,125.96296129189432,125.98619124991819,126.04188058397267,126.29370016697794,126.39947416691575,126.66386599990074,126.69915095891338,126.69915095891338,126.73836666694842,127.03752854198683,left,0.33244137500878423,None,demo,001,2025-03-24_16h55.36.408,Bonnen2015_2afc,2024.2.4,None,2025-03-24 16h55.55.811292 -0400,
0.2593,0.27,-0.01,120,24,2,right,0.1911985840415582,None,2,24,120,29,127.09182262490503,,,,,,,,,127.06700808391906,127.09182262490503,127.15031079191249,127.41663570899982,127.50360845890827,127.7673783749342,127.80254824995063,127.80254824995063,127.85217558394652,128.0042404999258,right,0.1911985840415582,None,demo,001,2025-03-24_16h55.36.408,Bonnen2015_2afc,2024.2.4,None,2025-03-24 16h55.55.811292 -0400,
0.2593,0.27,0.02,121,25,2,right,0.27582745905965567,None,2,25,121,13,128.0543680419214,,,,,,,,,128.0301053749863,128.0543680419214,128.1095964589622,128.3752824999392,128.46328062494285,128.72910891694482,128.7638276249636,128.7638276249636,128.80212570889853,129.05441170895938,right,0.27582745905965567,None,demo,001,2025-03-24_16h55.36.408,Bonnen2015_2afc,2024.2.4,None,2025-03-24 16h55.55.811292 -0400,
0.2593,0.27,0.04,122,26,2,right,0.21415058395359665,None,2,26,122,17,129.10631724994164,,,,,,,,,129.08201124996413,129.10631724994164,129.16341962490696,129.42994374991395,129.51682762498967,129.78217608400155,129.8168785419548,129.8168785419548,129.8558602919802,130.03741366695613,right,0.21415058395359665,None,demo,001,2025-03-24_16h55.36.408,Bonnen2015_2afc,2024.2.4,None,2025-03-24 16h55.55.811292 -0400,
0.2593,0.27,0.005,123,27,2,right,0.26362595800310373,None,2,27,123,5,130.09256466699298,,,,,,,,,130.06376258388627,130.09256466699298,130.14791645889636,130.4132216249127,130.50079404190183,130.76407058397308,130.798359499895,130.798359499895,130.8353664589813,131.07081879198086,right,0.26362595800310373,None,demo,001,2025-03-24_16h55.36.408,Bonnen2015_2afc,2024.2.4,None,2025-03-24 16h55.55.811292 -0400,
0.2593,0.27,-0.08,124,28,2,left,0.19150499999523163,None,2,28,124,41,131.1233002919471,,,,,,,,,131.09864549990743,131.1233002919471,131.18005399999674,131.44510758388788,131.53274924994912,131.79753999994136,131.8324537089793,131.8324537089793,131.87188087496907,132.03759333398193,left,0.19150499999523163,None,demo,001,2025-03-24_16h55.36.408,Bonnen2015_2afc,2024.2.4,None,2025-03-24 16h55.55.811292 -0400,
1.0,0.07,0.04,125,29,2,right,0.14142091700341552,None,2,29,125,16,132.08802083390765,,,,,,,,,132.06398954195902,132.08802083390765,132.14344699995127,132.40775670891162,132.49483624997083,132.75682324997615,132.79155799990986,132.79155799990986,132.83553758391645,132.9373215419473,right,0.14142091700341552,None,demo,001,2025-03-24_16h55.36.408,Bonnen2015_2afc,2024.2.4,None,2025-03-24 16h55.55.811292 -0400,
0.1045,0.67,0.04,126,30,2,right,0.24583416699897498,None,2,30,126,19,132.98126012494322,,,,,,,,,132.9603481249651,132.98126012494322,133.052065166994,133.3169953749748,133.40510129195172,133.6706764169503,133.68799041688908,133.68799041688908,133.73559166688938,133.93749741697684,right,0.24583416699897498,None,demo,001,2025-03-24_16h55.36.408,Bonnen2015_2afc,2024.2.4,None,2025-03-24 16h55.55.811292 -0400,
0.1489,0.47,0.04,127,31,2,right,0.23001595796085894,None,2,31,127,18,133.9896677499637,,,,,,,,,133.9648599999491,133.9896677499637,134.04769499995746,134.31239095889032,134.39911495894194,134.66375349997543,134.69945679197554,134.69945679197554,134.73839233396575,134.93749020888936,right,0.23001595796085894,None,demo,001,2025-03-24_16h55.36.408,Bonnen2015_2afc,2024.2.4,None,2025-03-24 16h55.55.811292 -0400,
0.1045,0.67,-0.04,128,32,2,left,0.2729001250118017,None,2,32,128,39,134.98943083395716,,,,,,,,,134.96466433396563,134.98943083395716,135.04593908390962,135.3100409999024,135.39650974993128,135.65969395893626,135.69470487500075,135.69470487500075,135.73546820890624,135.97104258392937,left,0.2729001250118017,None,demo,001,2025-03-24_16h55.36.408,Bonnen2015_2afc,2024.2.4,None,2025-03-24 16h55.55.811292 -0400,
0.2593,0.27,0.08,129,33,2,right,0.24148425005842,None,2,33,129,21,136.02337645890657,,,,,,,,,135.99872129189316,136.02337645890657,136.07909183390439,136.34579720895272,136.43302699993365,136.69757462490816,136.73241166688967,136.73241166688967,136.78563983389176,136.98751191690098,right,0.24148425005842,None,demo,001,2025-03-24_16h55.36.408,Bonnen2015_2afc,2024.2.4,None,2025-03-24 16h55.55.811292 -0400,
0.2593,0.27,-0.16,130,34,2,left,0.24041691690217704,None,2,34,130,45,137.0382580839796,,,,,,,,,137.01438658393454,137.0382580839796,137.095033208956,137.3615479589207,137.44886620889883,137.71311320899986,137.74815687490627,137.74815687490627,137.7858687499538,137.9905811669305,left,0.24041691690217704,None,demo,001,2025-03-24_16h55.36.408,Bonnen2015_2afc,2024.2.4,None,2025-03-24 16h55.55.811292 -0400,
1.0,0.07,0.0,131,35,2,right,0.4262553749140352,None,2,35,131,0,138.03950912493747,,,,,,,,,138.01533416693565,138.03950912493747,138.09590133395977,138.3580354169244,138.44382983399555,138.706307916902,138.74104808398988,138.74104808398988,138.78549104195554,139.17126854194794,right,0.4262553749140352,None,demo,001,2025-03-24_16h55.36.408,Bonnen2015_2afc,2024.2.4,None,2025-03-24 16h55.55.811292 -0400,
0.1489,0.47,-0.08,132,36,2,left,0.1800815409515053,None,2,36,132,42,139.22602524992544,,,,,,,,,139.20058141695336,139.22602524992544,139.2837347498862,139.5484104589559,139.6351644169772,139.89936983399093,139.9338709169533,139.9338709169533,139.97192433394957,140.12061991693918,left,0.1800815409515053,None,demo,001,2025-03-24_16h55.36.408,Bonnen2015_2afc,2024.2.4,None,2025-03-24 16h55.55.811292 -0400,
0.1489,0.47,0.02,133,37,2,right,0.23004962492268533,None,2,37,133,14,140.16853716690093,,,,,,,,,140.14545299997553,140.16853716690093,140.22442129196133,140.48841216694564,140.57605449995026,140.8409901249688,140.87598762498237,140.87598762498237,140.91884962492622,141.10722466697916,right,0.23004962492268533,None,demo,001,2025-03-24_16h55.36.408,Bonnen2015_2afc,2024.2.4,None,2025-03-24 16h55.55.811292 -0400,
0.1045,0.67,0.005,134,38,2,left,0.31876904203090817,None,2,38,134,7,141.15828545892145,,,,,,,,,141.13393412495498,141.15828545892145,141.21455929195508,141.48005487490445,141.56693649990484,141.8310827499954,141.865448916913,141.865448916913,141.9025744999526,142.1876552089816,left,0.31876904203090817,None,demo,001,2025-03-24_16h55.36.408,Bonnen2015_2afc,2024.2.4,None,2025-03-24 16h55.55.811292 -0400,
0.1489,0.47,-0.16,135,39,2,left,0.23246641701553017,None,2,39,135,46,142.2393054999411,,,,,,,,,142.21525574999396,142.2393054999411,142.29517479194328,142.55667004198767,142.64261233399156,142.9065537089482,142.94142737495713,142.94142737495713,142.9856047499925,143.18749287491664,left,0.23246641701553017,None,demo,001,2025-03-24_16h55.36.408,Bonnen2015_2afc,2024.2.4,None,2025-03-24 16h55.55.811292 -0400,
0.1489,0.47,-0.04,136,40,2,left,0.20850954193156213,None,2,40,136,38,143.23887824988924,,,,,,,,,143.21463462489191,143.23887824988924,143.29537929198705,143.5608730838867,143.64809304196388,143.91199483396485,143.94695620890707,143.94695620890707,143.9854850419797,144.15672924998216,left,0.20850954193156213,None,demo,001,2025-03-24_16h55.36.408,Bonnen2015_2afc,2024.2.4,None,2025-03-24 16h55.55.811292 -0400,
0.1489,0.47,0.005,137,41,2,right,0.24773575004655868,None,2,41,137,6,144.20477724994998,,,,,,,,,144.1815960839158,144.20477724994998,144.26112037489656,144.52629491698463,144.61350587499328,144.87829454196617,144.91280224989168,144.91280224989168,144.95232020888943,145.17070937494282,right,0.24773575004655868,None,demo,001,2025-03-24_16h55.36.408,Bonnen2015_2afc,2024.2.4,None,2025-03-24 16h55.55.811292 -0400,
1.0,0.07,0.16,138,42,2,right,0.17904775007627904,None,2,42,138,24,145.22119016689248,,,,,,,,,145.19740795891266,145.22119016689248,145.27684320893604,145.54187808395363,145.62868562492076,145.891714708996,145.92613370891195,145.92613370891195,145.9688936669845,146.10669887496624,right,0.17904775007627904,None,demo,001,2025-03-24_16h55.36.408,Bonnen2015_2afc,2024.2.4,None,2025-03-24 16h55.55.811292 -0400,
1.0,0.07,-0.08,139,43,2,left,0.19667245796881616,None,2,43,139,40,146.1546521249693,,,,,,,,,146.13130454195198,146.1546521249693,146.21036124997772,146.47582504199818,146.56287304195575,146.8257268749876,146.86054533394054,146.86054533394054,146.90220099990256,147.0708922499325,left,0.19667245796881616,None,demo,001,2025-03-24_16h55.36.408,Bonnen2015_2afc,2024.2.4,None,2025-03-24 16h55.55.811292 -0400,
0.1045,0.67,-0.16,140,44,2,left,0.2960360830184072,None,2,44,140,47,147.12134108389728,,,,,,,,,147.09741254197434,147.12134108389728,147.18765799992252,147.4508949589217,147.53681008389685,147.79727316694334,147.83114487491548,147.83114487491548,147.86881695897318,148.13720329198986,left,0.2960360830184072,None,demo,001,2025-03-24_16h55.36.408,Bonnen2015_2afc,2024.2.4,None,2025-03-24 16h55.55.811292 -0400,
0.1489,0.47,0.16,141,45,2,right,0.3019579580286518,None,2,45,141,26,148.18740216689184,,,,,,,,,148.16365099989343,148.18740216689184,148.24246212490834,148.50641529192217,148.59371937497053,148.85739962488879,148.89195991691668,148.89195991691668,148.9355594589142,149.20419808395673,right,0.3019579580286518,None,demo,001,2025-03-24_16h55.36.408,Bonnen2015_2afc,2024.2.4,None,2025-03-24 16h55.55.811292 -0400,
0.2593,0.27,0.0,142,46,2,left,0.22626058396417648,None,2,46,142,1,149.25591054197866,,,,,,,,,149.23189991689287,149.25591054197866,149.31214529194403,149.57587158388924,149.66210054198746,149.9274637089111,149.96231199998874,149.96231199998874,150.0022793749813,150.1909927089,left,0.22626058396417648,None,demo,001,2025-03-24_16h55.36.408,Bonnen2015_2afc,2024.2.4,None,2025-03-24 16h55.55.811292 -0400,
0.2593,0.27,0.01,143,47,2,right,0.3191770419944078,None,2,47,143,9,150.24275183398277,,,,,,,,,150.21654399996623,150.24275183398277,150.29777158389334,150.5599998749094,150.64744516694918,150.91249766689725,150.94691324990708,150.94691324990708,150.98544112499803,151.27085712493863,right,0.3191770419944078,None,demo,001,2025-03-24_16h55.36.408,Bonnen2015_2afc,2024.2.4,None,2025-03-24 16h55.55.811292 -0400,
