contrast,location,thisN,thisTrialN,thisRepN,response.keys,response.rt,response.duration,trials.thisRepN,trials.thisTrialN,trials.thisN,trials.thisIndex,thisRow.t,notes,begin_experiment.started,begin_experiment.stopped,trial.started,response.started,trial.stopped,trials.response.keys,trials.response.rt,trials.response.duration,participant,session,date,expName,psychopyVersion,frameRate,expStart,
,,,,,,,,,,,,,,0.006704750005155802,1.8452426669828128,,,,,,,demo,001,2025-01-06_23h01.49.058,forced_choice,2024.2.4,None,2025-01-06 23h01.56.246581 -0500,
0.0,-1,0,0,0,right,1.209324540977832,None,0,0,0,8,1.8568450419988949,,,,1.8510501249984372,2.447099958983017,3.6590529999812134,right,1.209324540977832,None,demo,001,2025-01-06_23h01.49.058,forced_choice,2024.2.4,None,2025-01-06 23h01.56.246581 -0500,
0.1,-1,1,1,0,left,0.5585798750107642,None,0,1,1,14,3.6658769169880543,,,,3.661016625002958,4.2570378340024035,4.82644549998804,left,0.5585798750107642,None,demo,001,2025-01-06_23h01.49.058,forced_choice,2024.2.4,None,2025-01-06 23h01.56.246581 -0500,
0.001,1,2,2,0,right,0.35959200002253056,None,0,2,2,4,4.834642875008285,,,,4.8284310000017285,5.4237185420061,5.792495208996115,right,0.35959200002253056,None,demo,001,2025-01-06_23h01.49.058,forced_choice,2024.2.4,None,2025-01-06 23h01.56.246581 -0500,
0.01,1,3,3,0,right,0.33314766600960866,None,0,3,3,5,5.800313458981691,,,,5.794228666985873,6.390186000004178,6.72683075000532,right,0.33314766600960866,None,demo,001,2025-01-06_23h01.49.058,forced_choice,2024.2.4,None,2025-01-06 23h01.56.246581 -0500,
1e-07,1,4,4,0,right,0.650453957990976,None,0,4,4,2,6.7444788749853615,,,,6.7287350420083385,7.323812124988763,7.979676958988421,right,0.650453957990976,None,demo,001,2025-01-06_23h01.49.058,forced_choice,2024.2.4,None,2025-01-06 23h01.56.246581 -0500,
1e-09,-1,5,5,0,left,0.40193595801247284,None,0,5,5,9,7.990080458985176,,,,7.9816744169802405,8.578324959002202,8.992037458985578,left,0.40193595801247284,None,demo,001,2025-01-06_23h01.49.058,forced_choice,2024.2.4,None,2025-01-06 23h01.56.246581 -0500,
1e-05,-1,6,6,0,right,0.2439903329941444,None,0,6,6,11,9.00065841700416,,,,8.994025124993641,9.59025933398516,9.842642458999762,right,0.2439903329941444,None,demo,001,2025-01-06_23h01.49.058,forced_choice,2024.2.4,None,2025-01-06 23h01.56.246581 -0500,
1e-09,1,7,7,0,left,0.5808334159955848,None,0,7,7,1,9.850807749986416,,,,9.844511792005505,10.440388833987527,11.026686833996791,left,0.5808334159955848,None,demo,001,2025-01-06_23h01.49.058,forced_choice,2024.2.4,None,2025-01-06 23h01.56.246581 -0500,
0.01,-1,8,8,0,left,0.44179383301525377,None,0,8,8,13,11.033180667000124,,,,11.028469374985434,11.623672416986665,12.076101041981019,left,0.44179383301525377,None,demo,001,2025-01-06_23h01.49.058,forced_choice,2024.2.4,None,2025-01-06 23h01.56.246581 -0500,
1e-05,1,9,9,0,right,0.3446496249816846,None,0,9,9,3,12.084091249998892,,,,12.07811450000736,12.673622792004608,13.025637833983637,right,0.3446496249816846,None,demo,001,2025-01-06_23h01.49.058,forced_choice,2024.2.4,None,2025-01-06 23h01.56.246581 -0500,
0.1,1,10,10,0,right,0.21353962499415502,None,0,10,10,6,13.034061916987412,,,,13.02757587499218,13.623659333999967,13.842111916979775,right,0.21353962499415502,None,demo,001,2025-01-06_23h01.49.058,forced_choice,2024.2.4,None,2025-01-06 23h01.56.246581 -0500,
1e-07,-1,11,11,0,left,0.6487519580114167,None,0,11,11,10,13.849882209004136,,,,13.843984209001064,14.440372708981158,15.092619083996397,left,0.6487519580114167,None,demo,001,2025-01-06_23h01.49.058,forced_choice,2024.2.4,None,2025-01-06 23h01.56.246581 -0500,
0.0,1,12,12,0,left,0.7340973749815021,None,0,12,12,0,15.100799209001707,,,,15.094283416983671,15.690290124999592,16.430119875003584,left,0.7340973749815021,None,demo,001,2025-01-06_23h01.49.058,forced_choice,2024.2.4,None,2025-01-06 23h01.56.246581 -0500,
0.001,-1,13,13,0,left,0.338833041023463,None,0,13,13,12,16.440089584008092,,,,16.432106166990707,17.028369417006616,17.375690916989697,left,0.338833041023463,None,demo,001,2025-01-06_23h01.49.058,forced_choice,2024.2.4,None,2025-01-06 23h01.56.246581 -0500,
1.0,-1,14,14,0,left,0.17243491602130234,None,0,14,14,15,17.38449962498271,,,,17.377866458991775,17.973626708990196,18.158974208985455,left,0.17243491602130234,None,demo,001,2025-01-06_23h01.49.058,forced_choice,2024.2.4,None,2025-01-06 23h01.56.246581 -0500,
1.0,1,15,15,0,right,0.48112437399686314,None,0,15,15,7,18.167053166980622,,,,18.160886166995624,18.75690750000649,19.24221804199624,right,0.48112437399686314,None,demo,001,2025-01-06_23h01.49.058,forced_choice,2024.2.4,None,2025-01-06 23h01.56.246581 -0500,
0.1,-1,16,0,1,left,0.4618450409907382,None,1,0,16,14,19.25091716699535,,,,19.24402379198,19.840239334007492,20.30873629200505,left,0.4618450409907382,None,demo,001,2025-01-06_23h01.49.058,forced_choice,2024.2.4,None,2025-01-06 23h01.56.246581 -0500,
1.0,-1,17,1,1,left,0.10332179098622873,None,1,1,17,15,20.317308124998817,,,,20.310581958998227,20.907040041987784,21.01215562497964,left,0.10332179098622873,None,demo,001,2025-01-06_23h01.49.058,forced_choice,2024.2.4,None,2025-01-06 23h01.56.246581 -0500,
1e-09,-1,18,2,1,left,1.1353635829873383,None,1,2,18,9,21.02334754198091,,,,21.014004249998834,21.611586916988017,22.75947591700242,left,1.1353635829873383,None,demo,001,2025-01-06_23h01.49.058,forced_choice,2024.2.4,None,2025-01-06 23h01.56.246581 -0500,
0.1,1,19,3,1,right,0.3704813749936875,None,1,3,19,6,22.767524958995637,,,,22.761265916982666,23.35739808398648,23.729851749987574,right,0.3704813749936875,None,demo,001,2025-01-06_23h01.49.058,forced_choice,2024.2.4,None,2025-01-06 23h01.56.246581 -0500,
1e-07,-1,20,4,1,left,1.0075564579747152,None,1,4,20,10,23.740065624995623,,,,23.73139987498871,24.328388541995082,25.342161417007446,left,1.0075564579747152,None,demo,001,2025-01-06_23h01.49.058,forced_choice,2024.2.4,None,2025-01-06 23h01.56.246581 -0500,
0.0,-1,21,5,1,left,0.7075387079967186,None,1,5,21,8,25.350413791980827,,,,25.343919709004695,25.940371792006772,26.658685208996758,left,0.7075387079967186,None,demo,001,2025-01-06_23h01.49.058,forced_choice,2024.2.4,None,2025-01-06 23h01.56.246581 -0500,
1e-05,-1,22,6,1,left,0.377934499992989,None,1,6,22,11,26.666996916988865,,,,26.66039366699988,27.257017041993095,27.642664499988314,left,0.377934499992989,None,demo,001,2025-01-06_23h01.49.058,forced_choice,2024.2.4,None,2025-01-06 23h01.56.246581 -0500,
0.01,1,23,7,1,right,0.3453622499946505,None,1,7,23,5,27.650424833991565,,,,27.64449891698314,28.24051104200771,28.591998458985472,right,0.3453622499946505,None,demo,001,2025-01-06_23h01.49.058,forced_choice,2024.2.4,None,2025-01-06 23h01.56.246581 -0500,
1e-05,1,24,8,1,right,0.3325309169886168,None,1,8,24,3,28.60070154198911,,,,28.593787041987525,29.190275333996397,29.525497458991595,right,0.3325309169886168,None,demo,001,2025-01-06_23h01.49.058,forced_choice,2024.2.4,None,2025-01-06 23h01.56.246581 -0500,
1.0,1,25,9,1,right,0.13402983301784843,None,1,9,25,7,29.534133999986807,,,,29.527337542007444,30.12369687500177,30.26286645900109,right,0.13402983301784843,None,demo,001,2025-01-06_23h01.49.058,forced_choice,2024.2.4,None,2025-01-06 23h01.56.246581 -0500,
1e-09,1,26,10,1,right,1.7094863329839427,None,1,10,26,1,30.273644500004593,,,,30.26474766698084,30.861260250007035,32.57590770898969,right,1.7094863329839427,None,demo,001,2025-01-06_23h01.49.058,forced_choice,2024.2.4,None,2025-01-06 23h01.56.246581 -0500,
0.01,-1,27,11,1,left,0.49216337499092333,None,1,11,27,13,32.58438370900694,,,,32.577644542005146,33.17363545898115,33.67575691698585,left,0.49216337499092333,None,demo,001,2025-01-06_23h01.49.058,forced_choice,2024.2.4,None,2025-01-06 23h01.56.246581 -0500,
1e-07,1,28,12,1,right,0.5989951250085142,None,1,12,28,2,33.68428383397986,,,,33.67755329198553,34.27367883399711,34.87539345899131,right,0.5989951250085142,None,demo,001,2025-01-06_23h01.49.058,forced_choice,2024.2.4,None,2025-01-06 23h01.56.246581 -0500,
0.001,1,29,13,1,right,0.6090396250074264,None,1,13,29,4,34.88304933399195,,,,34.87713029200677,35.47356233399478,36.09201204200508,right,0.6090396250074264,None,demo,001,2025-01-06_23h01.49.058,forced_choice,2024.2.4,None,2025-01-06 23h01.56.246581 -0500,
0.0,1,30,14,1,left,1.039296708011534,None,1,14,30,0,36.0989423749852,,,,36.093882833985845,36.690278499998385,37.74217320900061,left,1.039296708011534,None,demo,001,2025-01-06_23h01.49.058,forced_choice,2024.2.4,None,2025-01-06 23h01.56.246581 -0500,
0.001,-1,31,15,1,left,1.0312579169985838,None,1,15,31,12,37.74935004199506,,,,37.74401308398228,38.34028354199836,39.375639542005956,left,1.0312579169985838,None,demo,001,2025-01-06_23h01.49.058,forced_choice,2024.2.4,None,2025-01-06 23h01.56.246581 -0500,
0.1,1,32,0,2,right,0.6367734989908058,None,2,0,32,6,39.38371629198082,,,,39.37741512499633,39.9737009590026,40.6131477089948,right,0.6367734989908058,None,demo,001,2025-01-06_23h01.49.058,forced_choice,2024.2.4,None,2025-01-06 23h01.56.246581 -0500,
0.01,1,33,1,2,right,0.47637287399265915,None,2,1,33,5,40.623366583982715,,,,40.61510558400187,41.21118983399356,41.69248383399099,right,0.47637287399265915,None,demo,001,2025-01-06_23h01.49.058,forced_choice,2024.2.4,None,2025-01-06 23h01.56.246581 -0500,
1.0,1,34,2,2,right,0.41999433300225064,None,2,2,34,7,41.70042170898523,,,,41.69442616699962,42.29042499998468,42.71228362500551,right,0.41999433300225064,None,demo,001,2025-01-06_23h01.49.058,forced_choice,2024.2.4,None,2025-01-06 23h01.56.246581 -0500,
1e-07,1,35,3,2,right,0.6570799579785671,None,2,3,35,2,42.72344529198017,,,,42.71422729198821,43.311498875002144,43.97602220898261,right,0.6570799579785671,None,demo,001,2025-01-06_23h01.49.058,forced_choice,2024.2.4,None,2025-01-06 23h01.56.246581 -0500,
1e-05,1,36,4,2,right,0.3930182489857543,None,2,4,36,3,43.98395212498144,,,,43.97799149999628,44.57354354200652,44.975446041993564,right,0.3930182489857543,None,demo,001,2025-01-06_23h01.49.058,forced_choice,2024.2.4,None,2025-01-06 23h01.56.246581 -0500,
0.1,-1,37,5,2,left,0.5305820420035161,None,2,5,37,14,44.98405879200436,,,,44.97725958400406,45.57379808399128,46.109331458981615,left,0.5305820420035161,None,demo,001,2025-01-06_23h01.49.058,forced_choice,2024.2.4,None,2025-01-06 23h01.56.246581 -0500,
1e-09,1,38,6,2,left,0.86047691598651,None,2,6,38,1,46.11703662498621,,,,46.11121091700625,46.70687925000675,47.57571454200661,left,0.86047691598651,None,demo,001,2025-01-06_23h01.49.058,forced_choice,2024.2.4,None,2025-01-06 23h01.56.246581 -0500,
1.0,-1,39,7,2,left,0.5895544579834677,None,2,7,39,15,47.58390158400289,,,,47.57752779198927,48.17878354198183,48.775217916991096,left,0.5895544579834677,None,demo,001,2025-01-06_23h01.49.058,forced_choice,2024.2.4,None,2025-01-06 23h01.56.246581 -0500,
0.0,1,40,8,2,left,1.0926997080096044,None,2,8,40,0,48.78292374999728,,,,48.77671524998732,49.37357720898581,50.47551929199835,left,1.0926997080096044,None,demo,001,2025-01-06_23h01.49.058,forced_choice,2024.2.4,None,2025-01-06 23h01.56.246581 -0500,
1e-07,-1,41,9,2,right,1.1505805829947349,None,2,9,41,10,50.484291625005426,,,,50.47733562500798,51.073628791986266,52.22945958399214,right,1.1505805829947349,None,demo,001,2025-01-06_23h01.49.058,forced_choice,2024.2.4,None,2025-01-06 23h01.56.246581 -0500,
1e-09,-1,42,10,2,left,0.8666336239839438,None,2,10,42,9,52.24027933398611,,,,52.2313504589838,52.828560333990026,53.70929695898667,left,0.8666336239839438,None,demo,001,2025-01-06_23h01.49.058,forced_choice,2024.2.4,None,2025-01-06 23h01.56.246581 -0500,
0.0,-1,43,11,2,left,0.616204000019934,None,2,11,43,8,53.71765629199217,,,,53.71099987498019,54.30695100000594,54.92598299999372,left,0.616204000019934,None,demo,001,2025-01-06_23h01.49.058,forced_choice,2024.2.4,None,2025-01-06 23h01.56.246581 -0500,
1e-05,-1,44,12,2,left,0.6813976249832194,None,2,12,44,11,54.934456999995746,,,,54.9277710839815,55.52373879199149,56.20924391699373,left,0.6813976249832194,None,demo,001,2025-01-06_23h01.49.058,forced_choice,2024.2.4,None,2025-01-06 23h01.56.246581 -0500,
0.01,-1,45,13,2,left,0.5656367500196211,None,2,13,45,13,56.21756641700631,,,,56.21110016698367,56.807497917005094,57.37604645898682,left,0.5656367500196211,None,demo,001,2025-01-06_23h01.49.058,forced_choice,2024.2.4,None,2025-01-06 23h01.56.246581 -0500,
0.001,1,46,14,2,right,0.43831262399908155,None,2,14,46,4,57.384220209001796,,,,57.377686624997295,57.97379737498704,58.42542874999344,right,0.43831262399908155,None,demo,001,2025-01-06_23h01.49.058,forced_choice,2024.2.4,None,2025-01-06 23h01.56.246581 -0500,
0.001,-1,47,15,2,left,0.3264577490044758,None,2,15,47,12,58.43317783399834,,,,58.42697337499703,59.023749708983814,59.35914708400378,left,0.3264577490044758,None,demo,001,2025-01-06_23h01.49.058,forced_choice,2024.2.4,None,2025-01-06 23h01.56.246581 -0500,
1e-05,1,48,0,3,right,0.3164447500021197,None,3,0,48,3,59.367863583989674,,,,59.36116241698619,59.95661349999136,60.275827208999544,right,0.3164447500021197,None,demo,001,2025-01-06_23h01.49.058,forced_choice,2024.2.4,None,2025-01-06 23h01.56.246581 -0500,
0.1,1,49,1,3,right,0.24052024900447577,None,3,1,49,6,60.28447245899588,,,,60.27779587500845,60.8735767499893,61.12618249998195,right,0.24052024900447577,None,demo,001,2025-01-06_23h01.49.058,forced_choice,2024.2.4,None,2025-01-06 23h01.56.246581 -0500,
0.01,1,50,2,3,right,0.27947949900408275,None,3,2,50,5,61.13461529198685,,,,61.128179958992405,61.72365374999936,62.00868662499124,right,0.27947949900408275,None,demo,001,2025-01-06_23h01.49.058,forced_choice,2024.2.4,None,2025-01-06 23h01.56.246581 -0500,
0.001,1,51,3,3,right,0.33945191599195823,None,3,3,51,4,62.01660291699227,,,,62.01042791700456,62.60710120899603,62.96045304200379,right,0.33945191599195823,None,demo,001,2025-01-06_23h01.49.058,forced_choice,2024.2.4,None,2025-01-06 23h01.56.246581 -0500,
0.0,-1,52,4,3,right,0.4426328740082681,None,3,4,52,8,62.97388916698401,,,,62.96215312500135,63.562140583992004,64.00913575000595,right,0.4426328740082681,None,demo,001,2025-01-06_23h01.49.058,forced_choice,2024.2.4,None,2025-01-06 23h01.56.246581 -0500,
0.001,-1,53,5,3,left,0.39406283298740163,None,3,5,53,12,64.01746533400728,,,,64.01100054199924,64.60700729198288,65.0085573749966,left,0.39406283298740163,None,demo,001,2025-01-06_23h01.49.058,forced_choice,2024.2.4,None,2025-01-06 23h01.56.246581 -0500,
1e-05,-1,54,6,3,left,0.4037343739764765,None,3,6,54,11,65.01715904200682,,,,65.01044966699556,65.60714295899379,66.02634941699216,left,0.4037343739764765,None,demo,001,2025-01-06_23h01.49.058,forced_choice,2024.2.4,None,2025-01-06 23h01.56.246581 -0500,
1e-07,1,55,7,3,right,0.23129908301052637,None,3,7,55,2,66.03449854199425,,,,66.02822762500728,66.62361745900125,66.8594414999825,right,0.23129908301052637,None,demo,001,2025-01-06_23h01.49.058,forced_choice,2024.2.4,None,2025-01-06 23h01.56.246581 -0500,
1.0,1,56,8,3,right,0.34489012401900254,None,3,8,56,7,66.86781454199809,,,,66.86135070899036,67.45697137498064,67.80843549998826,right,0.34489012401900254,None,demo,001,2025-01-06_23h01.49.058,forced_choice,2024.2.4,None,2025-01-06 23h01.56.246581 -0500,
1e-09,1,57,9,3,right,0.5198179580038413,None,3,9,57,1,67.81465575000038,,,,67.8100653339934,68.40702287500608,68.92951037499006,right,0.5198179580038413,None,demo,001,2025-01-06_23h01.49.058,forced_choice,2024.2.4,None,2025-01-06 23h01.56.246581 -0500,
0.0,1,58,10,3,left,0.44343854099861346,None,3,10,58,0,68.94039899998461,,,,68.93137716699857,69.52841479200288,69.97571820899611,left,0.44343854099861346,None,demo,001,2025-01-06_23h01.49.058,forced_choice,2024.2.4,None,2025-01-06 23h01.56.246581 -0500,
0.1,-1,59,11,3,left,0.5598750830104109,None,3,11,59,14,69.98400337499334,,,,69.97772850000183,70.57398250000551,71.14274725000723,left,0.5598750830104109,None,demo,001,2025-01-06_23h01.49.058,forced_choice,2024.2.4,None,2025-01-06 23h01.56.246581 -0500,
1.0,-1,60,12,3,left,0.3695179159985855,None,3,12,60,15,71.15111049998086,,,,71.14470141698257,71.74025558397989,72.11203462499543,left,0.3695179159985855,None,demo,001,2025-01-06_23h01.49.058,forced_choice,2024.2.4,None,2025-01-06 23h01.56.246581 -0500,
1e-09,-1,61,13,3,left,0.4638760829984676,None,3,13,61,9,72.1236398750043,,,,72.11372504199971,72.7069124589907,73.17588216700824,left,0.4638760829984676,None,demo,001,2025-01-06_23h01.49.058,forced_choice,2024.2.4,None,2025-01-06 23h01.56.246581 -0500,
1e-07,-1,62,14,3,left,0.6010732909780927,None,3,14,62,10,73.19130866698106,,,,73.17750233400147,73.7736483339977,74.37947074999101,left,0.6010732909780927,None,demo,001,2025-01-06_23h01.49.058,forced_choice,2024.2.4,None,2025-01-06 23h01.56.246581 -0500,
0.01,-1,63,15,3,left,0.25203079101629555,None,3,15,63,13,74.39010783398408,,,,74.38205112499418,74.97770020898315,75.24268595900503,left,0.25203079101629555,None,demo,001,2025-01-06_23h01.49.058,forced_choice,2024.2.4,None,2025-01-06 23h01.56.246581 -0500,
1e-05,1,64,0,4,right,0.3733611249772366,None,4,0,64,3,75.2512065419869,,,,75.24435241700849,75.84029808398918,76.2258025839983,right,0.3733611249772366,None,demo,001,2025-01-06_23h01.49.058,forced_choice,2024.2.4,None,2025-01-06 23h01.56.246581 -0500,
1.0,1,65,1,4,right,0.4510348750045523,None,4,1,65,7,76.23379058399587,,,,76.22766137498547,76.82359062499017,77.27956570900278,right,0.4510348750045523,None,demo,001,2025-01-06_23h01.49.058,forced_choice,2024.2.4,None,2025-01-06 23h01.56.246581 -0500,
1.0,-1,66,2,4,left,0.41204766600276344,None,4,2,66,15,77.29002904199297,,,,77.28155829198658,77.87372662499547,78.29276966699399,left,0.41204766600276344,None,demo,001,2025-01-06_23h01.49.058,forced_choice,2024.2.4,None,2025-01-06 23h01.56.246581 -0500,
1e-09,1,67,3,4,left,0.4012983749853447,None,4,3,67,1,78.30026433398598,,,,78.29456683399621,78.89027387500391,79.29581404197961,left,0.4012983749853447,None,demo,001,2025-01-06_23h01.49.058,forced_choice,2024.2.4,None,2025-01-06 23h01.56.246581 -0500,
1e-07,-1,68,4,4,left,0.6543958330003079,None,4,4,68,10,79.30691666700295,,,,79.29771341700689,79.90716470900225,80.57490791700548,left,0.6543958330003079,None,demo,001,2025-01-06_23h01.49.058,forced_choice,2024.2.4,None,2025-01-06 23h01.56.246581 -0500,
0.0,1,69,5,4,left,0.5950520830228925,None,4,5,69,0,80.58008291700389,,,,80.57614612500765,81.17359187500551,81.77537604200188,left,0.5950520830228925,None,demo,001,2025-01-06_23h01.49.058,forced_choice,2024.2.4,None,2025-01-06 23h01.56.246581 -0500,
1e-05,-1,70,6,4,left,0.496847083006287,None,4,6,70,11,81.78389058398898,,,,81.7771548339806,82.373690834007,82.8753632089938,left,0.496847083006287,None,demo,001,2025-01-06_23h01.49.058,forced_choice,2024.2.4,None,2025-01-06 23h01.56.246581 -0500,
0.001,1,71,7,4,right,0.3047628329950385,None,4,7,71,4,82.88367520898464,,,,82.87742216698825,83.47369700000854,83.79265637500794,right,0.3047628329950385,None,demo,001,2025-01-06_23h01.49.058,forced_choice,2024.2.4,None,2025-01-06 23h01.56.246581 -0500,
0.01,1,72,8,4,right,0.5413223750074394,None,4,8,72,5,83.80095074998098,,,,83.79462087500724,84.39025383398985,84.94283854198875,right,0.5413223750074394,None,demo,001,2025-01-06_23h01.49.058,forced_choice,2024.2.4,None,2025-01-06 23h01.56.246581 -0500,
0.0,-1,73,9,4,right,0.5481242910027504,None,4,9,73,8,84.95149654199486,,,,84.94479533398408,85.54032895900309,86.09247583398246,right,0.5481242910027504,None,demo,001,2025-01-06_23h01.49.058,forced_choice,2024.2.4,None,2025-01-06 23h01.56.246581 -0500,
1e-09,-1,74,10,4,left,0.5309826240118127,None,4,10,74,9,86.10084158400423,,,,86.09434112499002,86.69044099998428,87.22562270899653,left,0.5309826240118127,None,demo,001,2025-01-06_23h01.49.058,forced_choice,2024.2.4,None,2025-01-06 23h01.56.246581 -0500,
0.001,-1,75,11,4,left,0.5268767079978716,None,4,11,75,12,87.23273733400856,,,,87.22755099998903,87.82364491699263,88.35957724999753,left,0.5268767079978716,None,demo,001,2025-01-06_23h01.49.058,forced_choice,2024.2.4,None,2025-01-06 23h01.56.246581 -0500,
0.1,-1,76,12,4,left,0.5785811659879982,None,4,12,76,14,88.36775787500665,,,,88.36124737499631,88.95979699998861,89.5427329170052,left,0.5785811659879982,None,demo,001,2025-01-06_23h01.49.058,forced_choice,2024.2.4,None,2025-01-06 23h01.56.246581 -0500,
1e-07,1,77,13,4,right,0.635123583022505,None,4,13,77,2,89.55100645899074,,,,89.54442270900472,90.14019066700712,90.77902441698825,right,0.635123583022505,None,demo,001,2025-01-06_23h01.49.058,forced_choice,2024.2.4,None,2025-01-06 23h01.56.246581 -0500,
0.1,1,78,14,4,right,0.6485815409978386,None,4,14,78,6,90.79007120899041,,,,90.78070670898887,91.37373345898231,92.0255874999857,right,0.6485815409978386,None,demo,001,2025-01-06_23h01.49.058,forced_choice,2024.2.4,None,2025-01-06 23h01.56.246581 -0500,
0.01,-1,79,15,4,left,0.6235629580041859,None,4,15,79,13,92.03406408400042,,,,92.02755374999833,92.6236894169997,93.25912512498326,left,0.6235629580041859,None,demo,001,2025-01-06_23h01.49.058,forced_choice,2024.2.4,None,2025-01-06 23h01.56.246581 -0500,
0.001,1,80,0,5,right,0.5002357080229558,None,5,0,80,4,93.26765925000655,,,,93.2610572919948,93.8570027499809,94.36355266699684,right,0.5002357080229558,None,demo,001,2025-01-06_23h01.49.058,forced_choice,2024.2.4,None,2025-01-06 23h01.56.246581 -0500,
0.1,1,81,1,5,right,0.43026570801157504,None,5,1,81,6,94.37335987499682,,,,94.36550633399747,94.96095770900138,95.39592866698513,right,0.43026570801157504,None,demo,001,2025-01-06_23h01.49.058,forced_choice,2024.2.4,None,2025-01-06 23h01.56.246581 -0500,
1e-09,-1,82,2,5,right,0.8117507910064887,None,5,2,82,9,95.4072262919799,,,,95.39794483399601,95.9944777089986,96.8094150419929,right,0.8117507910064887,None,demo,001,2025-01-06_23h01.49.058,forced_choice,2024.2.4,None,2025-01-06 23h01.56.246581 -0500,
0.001,-1,83,3,5,left,0.44122895802138373,None,5,3,83,12,96.81761312499293,,,,96.81120045899297,97.40693699999247,97.85896149999462,left,0.44122895802138373,None,demo,001,2025-01-06_23h01.49.058,forced_choice,2024.2.4,None,2025-01-06 23h01.56.246581 -0500,
0.1,-1,84,4,5,left,0.3912128330266569,None,5,4,84,14,97.86772933398606,,,,97.86079854198033,98.45704533398384,98.8586740839819,left,0.3912128330266569,None,demo,001,2025-01-06_23h01.49.058,forced_choice,2024.2.4,None,2025-01-06 23h01.56.246581 -0500,
1.0,1,85,5,5,right,0.2932324160065036,None,5,5,85,7,98.86738212499768,,,,98.86049962500692,99.45700758398743,99.75875704200007,right,0.2932324160065036,None,demo,001,2025-01-06_23h01.49.058,forced_choice,2024.2.4,None,2025-01-06 23h01.56.246581 -0500,
0.0,-1,86,6,5,right,0.4551402499782853,None,5,6,86,8,99.7669592089951,,,,99.76060291699832,100.35692141699838,100.82592845900217,right,0.4551402499782853,None,demo,001,2025-01-06_23h01.49.058,forced_choice,2024.2.4,None,2025-01-06 23h01.56.246581 -0500,
1e-07,1,87,7,5,right,0.5084682079905178,None,5,7,87,2,100.83395558400662,,,,100.82780416699825,101.42370362498332,101.94282266698428,right,0.5084682079905178,None,demo,001,2025-01-06_23h01.49.058,forced_choice,2024.2.4,None,2025-01-06 23h01.56.246581 -0500,
1.0,-1,88,8,5,left,0.40647091600112617,None,5,8,88,15,101.95108374999836,,,,101.94462137500523,102.5406100419932,102.95982383398223,left,0.40647091600112617,None,demo,001,2025-01-06_23h01.49.058,forced_choice,2024.2.4,None,2025-01-06 23h01.56.246581 -0500,
0.0,1,89,9,5,left,0.6720496249909047,None,5,9,89,0,102.9683828339912,,,,102.96190358398599,103.55701933399541,104.24252087500645,left,0.6720496249909047,None,demo,001,2025-01-06_23h01.49.058,forced_choice,2024.2.4,None,2025-01-06 23h01.56.246581 -0500,
0.01,1,90,10,5,right,0.22278324901708402,None,5,10,90,5,104.25079408398597,,,,104.24434270898928,104.84025058400584,105.07536758398055,right,0.22278324901708402,None,demo,001,2025-01-06_23h01.49.058,forced_choice,2024.2.4,None,2025-01-06 23h01.56.246581 -0500,
1e-05,-1,91,11,5,left,0.8203834579908289,None,5,11,91,11,105.08399833398289,,,,105.07728245898033,105.67356787499739,106.4956489589822,left,0.8203834579908289,None,demo,001,2025-01-06_23h01.49.058,forced_choice,2024.2.4,None,2025-01-06 23h01.56.246581 -0500,
1e-07,-1,92,12,5,left,0.45853850001003593,None,5,12,92,10,106.5068467920064,,,,106.49727741698734,107.09444016698399,107.55939866698463,left,0.45853850001003593,None,demo,001,2025-01-06_23h01.49.058,forced_choice,2024.2.4,None,2025-01-06 23h01.56.246581 -0500,
1e-05,1,93,13,5,right,0.13877187497564591,None,5,13,93,3,107.56589941700804,,,,107.56118900000001,108.15714383398881,108.3092312089866,right,0.13877187497564591,None,demo,001,2025-01-06_23h01.49.058,forced_choice,2024.2.4,None,2025-01-06 23h01.56.246581 -0500,
1e-09,1,94,14,5,left,0.5327843329869211,None,5,14,94,1,108.31687766700634,,,,108.3116694589844,108.90711499997997,109.44213729200419,left,0.5327843329869211,None,demo,001,2025-01-06_23h01.49.058,forced_choice,2024.2.4,None,2025-01-06 23h01.56.246581 -0500,
0.01,-1,95,15,5,left,0.2995372910227161,None,5,15,95,13,109.45056174998172,,,,109.44386212498648,110.04034849998425,110.34252216698951,left,0.2995372910227161,None,demo,001,2025-01-06_23h01.49.058,forced_choice,2024.2.4,None,2025-01-06 23h01.56.246581 -0500,
0.01,1,96,0,6,right,0.22247737500583753,None,6,0,96,5,110.35120395899867,,,,110.34428791698883,110.94036208398757,111.17549720898387,right,0.22247737500583753,None,demo,001,2025-01-06_23h01.49.058,forced_choice,2024.2.4,None,2025-01-06 23h01.56.246581 -0500,
1e-07,1,97,1,6,left,0.5011323330109008,None,6,1,97,2,111.18380866700318,,,,111.17727937499876,111.77365870898939,112.27910287500708,left,0.5011323330109008,None,demo,001,2025-01-06_23h01.49.058,forced_choice,2024.2.4,None,2025-01-06 23h01.56.246581 -0500,
1e-09,-1,98,2,6,left,0.4916896669892594,None,6,2,98,9,112.29022133399849,,,,112.28085587499663,112.87821741699008,113.37555112500559,left,0.4916896669892594,None,demo,001,2025-01-06_23h01.49.058,forced_choice,2024.2.4,None,2025-01-06 23h01.56.246581 -0500,
1e-07,-1,99,3,6,left,0.38716187499812804,None,6,3,99,10,113.38294729200425,,,,113.37740204198053,113.97361774998717,114.3627133340051,left,0.38716187499812804,None,demo,001,2025-01-06_23h01.49.058,forced_choice,2024.2.4,None,2025-01-06 23h01.56.246581 -0500,
1e-05,-1,100,4,6,left,0.29880204098299146,None,6,4,100,11,114.37339733398403,,,,114.36462891698466,114.9620066669886,115.27427216700744,left,0.29880204098299146,None,demo,001,2025-01-06_23h01.49.058,forced_choice,2024.2.4,None,2025-01-06 23h01.56.246581 -0500,
0.0,1,101,5,6,right,0.24560962500981987,None,6,5,101,0,115.27910741697997,,,,115.27491737500532,115.86212387500564,116.11277562499163,right,0.24560962500981987,None,demo,001,2025-01-06_23h01.49.058,forced_choice,2024.2.4,None,2025-01-06 23h01.56.246581 -0500,
0.1,1,102,6,6,right,0.5069677080027759,None,6,6,102,6,116.12335570898722,,,,116.11483829200733,116.710903625004,117.22600437499932,right,0.5069677080027759,None,demo,001,2025-01-06_23h01.49.058,forced_choice,2024.2.4,None,2025-01-06 23h01.56.246581 -0500,
0.001,1,103,7,6,right,0.39714495799853466,None,6,7,103,4,117.23457745899213,,,,117.22786137499497,117.82365004200255,118.22591379200458,right,0.39714495799853466,None,demo,001,2025-01-06_23h01.49.058,forced_choice,2024.2.4,None,2025-01-06 23h01.56.246581 -0500,
0.0,-1,104,8,6,left,0.4071020410046913,None,6,8,104,8,118.233933334006,,,,118.22790274998988,118.82355337499757,119.24223829200491,left,0.4071020410046913,None,demo,001,2025-01-06_23h01.49.058,forced_choice,2024.2.4,None,2025-01-06 23h01.56.246581 -0500,
1e-05,1,105,9,6,right,0.24835454099229537,None,6,9,105,3,119.24997345899465,,,,119.24415987500106,119.84028708399273,120.09233916699304,right,0.24835454099229537,None,demo,001,2025-01-06_23h01.49.058,forced_choice,2024.2.4,None,2025-01-06 23h01.56.246581 -0500,
0.1,-1,106,10,6,left,0.3083263330045156,None,6,10,106,14,120.09852862500702,,,,120.09423766698455,120.69035262498073,121.01002220899682,left,0.3083263330045156,None,demo,001,2025-01-06_23h01.49.058,forced_choice,2024.2.4,None,2025-01-06 23h01.56.246581 -0500,
1.0,1,107,11,6,right,0.17259679100243375,None,6,11,107,7,121.01842104198295,,,,121.01176649998524,121.60702904200298,121.792653084005,right,0.17259679100243375,None,demo,001,2025-01-06_23h01.49.058,forced_choice,2024.2.4,None,2025-01-06 23h01.56.246581 -0500,
0.01,-1,108,12,6,left,0.21430962398881093,None,6,12,108,13,121.8009169169818,,,,121.79436058399733,122.39027187498868,122.6091604999965,left,0.21430962398881093,None,demo,001,2025-01-06_23h01.49.058,forced_choice,2024.2.4,None,2025-01-06 23h01.56.246581 -0500,
1e-09,1,109,13,6,left,0.39364587498130277,None,6,13,109,1,122.61731079200399,,,,122.6111849169829,123.20693395897979,123.60937024999293,left,0.39364587498130277,None,demo,001,2025-01-06_23h01.49.058,forced_choice,2024.2.4,None,2025-01-06 23h01.56.246581 -0500,
1.0,-1,110,14,6,left,0.1695802499889396,None,6,14,110,15,123.61766854199232,,,,123.61147641699063,124.20699325000169,124.38051358400844,left,0.1695802499889396,None,demo,001,2025-01-06_23h01.49.058,forced_choice,2024.2.4,None,2025-01-06 23h01.56.246581 -0500,
0.001,-1,111,15,6,left,0.7139866659999825,None,6,15,111,12,124.38919708400499,,,,124.38214387500193,124.97753108400502,125.69355704198824,left,0.7139866659999825,None,demo,001,2025-01-06_23h01.49.058,forced_choice,2024.2.4,None,2025-01-06 23h01.56.246581 -0500,
0.1,1,112,0,7,right,0.5021554580016527,None,7,0,112,6,125.70713770898874,,,,125.69530320898048,126.29033858398907,126.79567283400684,right,0.5021554580016527,None,demo,001,2025-01-06_23h01.49.058,forced_choice,2024.2.4,None,2025-01-06 23h01.56.246581 -0500,
0.001,-1,113,1,7,left,0.6211249580082949,None,7,1,113,12,126.80688062499394,,,,126.79732462498941,127.39030025000102,128.0262172090006,left,0.6211249580082949,None,demo,001,2025-01-06_23h01.49.058,forced_choice,2024.2.4,None,2025-01-06 23h01.56.246581 -0500,
1e-05,-1,114,2,7,left,0.582813208020525,None,7,2,114,11,128.03387562499847,,,,128.02809020900168,128.62370024999836,129.20865945899277,left,0.582813208020525,None,demo,001,2025-01-06_23h01.49.058,forced_choice,2024.2.4,None,2025-01-06 23h01.56.246581 -0500,
1e-09,1,115,3,7,right,1.1824452500150073,None,7,3,115,1,129.2168529589835,,,,129.2104213339917,129.80696866699145,130.99262870900566,right,1.1824452500150073,None,demo,001,2025-01-06_23h01.49.058,forced_choice,2024.2.4,None,2025-01-06 23h01.56.246581 -0500,
0.01,-1,116,4,7,left,0.4337721670162864,None,7,4,116,13,131.00091229198733,,,,130.9944083750015,131.59034345898544,132.02994804200716,left,0.4337721670162864,None,demo,001,2025-01-06_23h01.49.058,forced_choice,2024.2.4,None,2025-01-06 23h01.56.246581 -0500,
1e-09,-1,117,5,7,left,0.5766079580062069,None,7,5,117,9,132.0399555839831,,,,132.03197304200148,132.62774695898406,133.20777312500286,left,0.5766079580062069,None,demo,001,2025-01-06_23h01.49.058,forced_choice,2024.2.4,None,2025-01-06 23h01.56.246581 -0500,
1.0,-1,118,6,7,left,0.49025166701176204,None,7,6,118,15,133.2130083749944,,,,133.2086423340079,133.79513962499914,134.2927102499816,left,0.49025166701176204,None,demo,001,2025-01-06_23h01.49.058,forced_choice,2024.2.4,None,2025-01-06 23h01.56.246581 -0500,
0.0,1,119,7,7,left,1.044010374986101,None,7,7,119,0,134.30105529198772,,,,134.2946845839906,134.89036283400492,135.94238649998442,left,1.044010374986101,None,demo,001,2025-01-06_23h01.49.058,forced_choice,2024.2.4,None,2025-01-06 23h01.56.246581 -0500,
0.0,-1,120,8,7,left,1.1689140000089537,None,7,8,120,8,135.95100312499562,,,,135.94429516699165,136.5403553750075,137.71253225000692,left,1.1689140000089537,None,demo,001,2025-01-06_23h01.49.058,forced_choice,2024.2.4,None,2025-01-06 23h01.56.246581 -0500,
0.001,1,121,9,7,right,0.48325758302235045,None,7,9,121,4,137.72338424998452,,,,137.71432704199106,138.31096020899713,138.7964713340043,right,0.48325758302235045,None,demo,001,2025-01-06_23h01.49.058,forced_choice,2024.2.4,None,2025-01-06 23h01.56.246581 -0500,
1e-07,1,122,10,7,right,0.6452545420033857,None,7,10,122,2,138.8067438339931,,,,138.7984215419856,139.39501849998487,140.04298549998202,right,0.6452545420033857,None,demo,001,2025-01-06_23h01.49.058,forced_choice,2024.2.4,None,2025-01-06 23h01.56.246581 -0500,
0.1,-1,123,11,7,left,0.5176015000033658,None,7,11,123,14,140.05181891698157,,,,140.04509058399708,140.6575133340084,141.1794934589998,left,0.5176015000033658,None,demo,001,2025-01-06_23h01.49.058,forced_choice,2024.2.4,None,2025-01-06 23h01.56.246581 -0500,
1e-05,1,124,12,7,right,0.6204128749959636,None,7,12,124,3,141.19019729198772,,,,141.18109537498094,141.7788748749881,142.40883291698992,right,0.6204128749959636,None,demo,001,2025-01-06_23h01.49.058,forced_choice,2024.2.4,None,2025-01-06 23h01.56.246581 -0500,
1e-07,-1,125,13,7,left,0.5673445829888806,None,7,13,125,10,142.417387124995,,,,142.4106307500042,143.0067297089845,143.5797107499966,left,0.5673445829888806,None,demo,001,2025-01-06_23h01.49.058,forced_choice,2024.2.4,None,2025-01-06 23h01.56.246581 -0500,
0.01,1,126,14,7,right,0.486614791007014,None,7,14,126,5,143.59023408399662,,,,143.58156166700064,144.17845574999228,144.67579104198376,right,0.486614791007014,None,demo,001,2025-01-06_23h01.49.058,forced_choice,2024.2.4,None,2025-01-06 23h01.56.246581 -0500,
1.0,1,127,15,7,right,0.49650354200275615,None,7,15,127,7,144.68344150000485,,,,144.6777415839897,145.27365858398844,145.7753799589991,right,0.49650354200275615,None,demo,001,2025-01-06_23h01.49.058,forced_choice,2024.2.4,None,2025-01-06 23h01.56.246581 -0500,
1.0,1,128,0,8,right,0.5443791249999776,None,8,0,128,7,145.78273674999946,,,,145.77733849998913,146.37365162500646,146.92549554200377,right,0.5443791249999776,None,demo,001,2025-01-06_23h01.49.058,forced_choice,2024.2.4,None,2025-01-06 23h01.56.246581 -0500,
0.1,1,129,1,8,right,0.5823227079818025,None,8,1,129,6,146.93397691700375,,,,146.9272951669991,147.5237013750011,148.1091892090044,right,0.5823227079818025,None,demo,001,2025-01-06_23h01.49.058,forced_choice,2024.2.4,None,2025-01-06 23h01.56.246581 -0500,
0.01,1,130,2,8,right,0.3545377909904346,None,8,2,130,5,148.1175434589968,,,,148.110952041985,148.7073819169891,149.0756354169862,right,0.3545377909904346,None,demo,001,2025-01-06_23h01.49.058,forced_choice,2024.2.4,None,2025-01-06 23h01.56.246581 -0500,
1e-07,-1,131,3,8,left,0.5392410829954315,None,8,3,131,10,149.0848315419862,,,,149.07811762500205,149.67368120898027,150.22641216698685,left,0.5392410829954315,None,demo,001,2025-01-06_23h01.49.058,forced_choice,2024.2.4,None,2025-01-06 23h01.56.246581 -0500,
0.0,-1,132,4,8,left,0.6753295829985291,None,8,4,132,8,150.2344066670048,,,,150.2283412499819,150.8237002090027,151.50886349999928,left,0.6753295829985291,None,demo,001,2025-01-06_23h01.49.058,forced_choice,2024.2.4,None,2025-01-06 23h01.56.246581 -0500,
1e-09,-1,133,5,8,right,0.6159959580108989,None,8,5,133,9,151.51762879200396,,,,151.5106369999994,152.10691120900447,152.72530774999177,right,0.6159959580108989,None,demo,001,2025-01-06_23h01.49.058,forced_choice,2024.2.4,None,2025-01-06 23h01.56.246581 -0500,
1e-05,1,134,6,8,right,0.44694845797494054,None,8,6,134,3,152.73276920898934,,,,152.72703574999468,153.32395570899826,153.77568191700266,right,0.44694845797494054,None,demo,001,2025-01-06_23h01.49.058,forced_choice,2024.2.4,None,2025-01-06 23h01.56.246581 -0500,
0.1,-1,135,7,8,left,0.4463353330211248,None,8,7,135,14,153.78427704199567,,,,153.77757554198615,154.37364533398068,154.8259229999967,left,0.4463353330211248,None,demo,001,2025-01-06_23h01.49.058,forced_choice,2024.2.4,None,2025-01-06 23h01.56.246581 -0500,
1.0,-1,136,8,8,left,0.4562910410168115,None,8,8,136,15,154.83420499999193,,,,154.82764333399246,155.42356708398438,155.8925952919817,left,0.4562910410168115,None,demo,001,2025-01-06_23h01.49.058,forced_choice,2024.2.4,None,2025-01-06 23h01.56.246581 -0500,
1e-09,1,137,9,8,right,0.4400847490178421,None,8,9,137,1,155.90028795899707,,,,155.89453445898835,156.50778404198354,156.9589405839797,right,0.4400847490178421,None,demo,001,2025-01-06_23h01.49.058,forced_choice,2024.2.4,None,2025-01-06 23h01.56.246581 -0500,
0.01,-1,138,10,8,left,0.4006148740008939,None,8,10,138,13,156.96691691700835,,,,156.96061666699825,157.55711033398984,157.96310387499398,left,0.4006148740008939,None,demo,001,2025-01-06_23h01.49.058,forced_choice,2024.2.4,None,2025-01-06 23h01.56.246581 -0500,
0.001,1,139,11,8,right,0.31193487500422634,None,8,11,139,4,157.97332674998324,,,,157.9650915839884,158.56180137500633,158.87635249999585,right,0.31193487500422634,None,demo,001,2025-01-06_23h01.49.058,forced_choice,2024.2.4,None,2025-01-06 23h01.56.246581 -0500,
1e-05,-1,140,12,8,left,0.6171281670103781,None,8,12,140,11,158.88397304198588,,,,158.87821616698056,159.47363529200084,160.09594479200314,left,0.6171281670103781,None,demo,001,2025-01-06_23h01.49.058,forced_choice,2024.2.4,None,2025-01-06 23h01.56.246581 -0500,
1e-07,1,141,13,8,right,0.45837974999449216,None,8,13,141,2,160.10691258398583,,,,160.09785716698389,160.69030312498217,161.1585022090003,right,0.45837974999449216,None,demo,001,2025-01-06_23h01.49.058,forced_choice,2024.2.4,None,2025-01-06 23h01.56.246581 -0500,
0.001,-1,142,14,8,left,0.41669287500553764,None,8,14,142,12,161.16439929199987,,,,161.15970091699273,161.7569261250028,162.17602849999093,left,0.41669287500553764,None,demo,001,2025-01-06_23h01.49.058,forced_choice,2024.2.4,None,2025-01-06 23h01.56.246581 -0500,
0.0,1,143,15,8,right,0.576166207989445,None,8,15,143,0,162.18429583398392,,,,162.17768737499136,162.7735900839907,163.3587902500003,right,0.576166207989445,None,demo,001,2025-01-06_23h01.49.058,forced_choice,2024.2.4,None,2025-01-06 23h01.56.246581 -0500,
1.0,-1,144,0,9,left,0.33249608299229294,None,9,0,144,15,163.3672999170085,,,,163.36063387498143,163.95713195900316,164.2925585419871,left,0.33249608299229294,None,demo,001,2025-01-06_23h01.49.058,forced_choice,2024.2.4,None,2025-01-06 23h01.56.246581 -0500,
0.1,-1,145,1,9,left,0.476318083005026,None,9,1,145,14,164.30049741698895,,,,164.29449995898176,164.8903666670085,165.37589108399698,left,0.476318083005026,None,demo,001,2025-01-06_23h01.49.058,forced_choice,2024.2.4,None,2025-01-06 23h01.56.246581 -0500,
0.01,-1,146,2,9,left,0.47796354099409655,None,9,2,146,13,165.38460929199937,,,,165.37773725000443,165.97373758399044,166.45863449998433,left,0.47796354099409655,None,demo,001,2025-01-06_23h01.49.058,forced_choice,2024.2.4,None,2025-01-06 23h01.56.246581 -0500,
0.01,1,147,3,9,right,0.33463058300549164,None,9,3,147,5,166.4666686669807,,,,166.46046395899612,167.0568850839918,167.3965939169866,right,0.33463058300549164,None,demo,001,2025-01-06_23h01.49.058,forced_choice,2024.2.4,None,2025-01-06 23h01.56.246581 -0500,
0.0,-1,148,4,9,left,0.5537007079983596,None,9,4,148,8,167.4068702920049,,,,167.3984292499954,167.99486283399165,168.55939562499407,left,0.5537007079983596,None,demo,001,2025-01-06_23h01.49.058,forced_choice,2024.2.4,None,2025-01-06 23h01.56.246581 -0500,
1e-07,-1,149,5,9,left,0.4446445829817094,None,9,5,149,10,168.5678990839806,,,,168.56120604198077,169.15699491699343,169.6089517500077,left,0.4446445829817094,None,demo,001,2025-01-06_23h01.49.058,forced_choice,2024.2.4,None,2025-01-06 23h01.56.246581 -0500,
0.001,-1,150,6,9,left,0.40147325000725687,None,9,6,150,12,169.6171538339986,,,,169.61088733398356,170.20695491699735,170.61287595899194,left,0.40147325000725687,None,demo,001,2025-01-06_23h01.49.058,forced_choice,2024.2.4,None,2025-01-06 23h01.56.246581 -0500,
1e-09,-1,151,7,9,left,0.740745123999659,None,9,7,151,9,170.6233645839966,,,,170.61486366699683,171.2118259590061,171.9592255000025,left,0.740745123999659,None,demo,001,2025-01-06_23h01.49.058,forced_choice,2024.2.4,None,2025-01-06 23h01.56.246581 -0500,
1e-05,1,152,8,9,right,1.1793830829847138,None,9,8,152,3,171.96777158399345,,,,171.960973749985,172.55603462498402,173.74221829199814,right,1.1793830829847138,None,demo,001,2025-01-06_23h01.49.058,forced_choice,2024.2.4,None,2025-01-06 23h01.56.246581 -0500,
1e-09,1,153,9,9,left,0.4661143750126939,None,9,9,153,1,173.75069654200342,,,,173.74399566699867,174.3402751669928,174.80959170899587,left,0.4661143750126939,None,demo,001,2025-01-06_23h01.49.058,forced_choice,2024.2.4,None,2025-01-06 23h01.56.246581 -0500,
1e-05,-1,154,10,9,left,0.465280915988842,None,9,10,154,11,174.8238037499832,,,,174.81132879198412,175.4070725000056,175.87576720898505,left,0.465280915988842,None,demo,001,2025-01-06_23h01.49.058,forced_choice,2024.2.4,None,2025-01-06 23h01.56.246581 -0500,
1e-07,1,155,11,9,right,0.36769737501163036,None,9,11,155,2,175.88400416699005,,,,175.8775538750051,176.47359341700212,176.8465804589796,right,0.36769737501163036,None,demo,001,2025-01-06_23h01.49.058,forced_choice,2024.2.4,None,2025-01-06 23h01.56.246581 -0500,
0.001,1,156,12,9,right,0.48370241597876884,None,9,12,156,4,176.856788709003,,,,176.84844645898556,177.44459533400368,177.93038079200778,right,0.48370241597876884,None,demo,001,2025-01-06_23h01.49.058,forced_choice,2024.2.4,None,2025-01-06 23h01.56.246581 -0500,
1.0,1,157,13,9,right,0.4502904159890022,None,9,13,157,7,177.93997424998088,,,,177.93233845898067,178.5280254590034,178.99334045898286,right,0.4502904159890022,None,demo,001,2025-01-06_23h01.49.058,forced_choice,2024.2.4,None,2025-01-06 23h01.56.246581 -0500,
0.1,1,158,14,9,right,0.3048190409899689,None,9,14,158,6,179.00653491698904,,,,178.99508604200673,179.59038312500343,179.909855083999,right,0.3048190409899689,None,demo,001,2025-01-06_23h01.49.058,forced_choice,2024.2.4,None,2025-01-06 23h01.56.246581 -0500,
0.0,1,159,15,9,right,0.530377540999325,None,9,15,159,0,179.91766945898416,,,,179.91175933400518,180.50699754199013,181.04266362500493,right,0.530377540999325,None,demo,001,2025-01-06_23h01.49.058,forced_choice,2024.2.4,None,2025-01-06 23h01.56.246581 -0500,
0.0,1,160,0,10,left,2.0270088329853024,None,10,0,160,0,181.05088670898112,,,,181.04433008399792,181.64027445900138,183.67627562498092,left,2.0270088329853024,None,demo,001,2025-01-06_23h01.49.058,forced_choice,2024.2.4,None,2025-01-06 23h01.56.246581 -0500,
1e-09,1,161,1,10,left,0.4729024170082994,None,10,1,161,1,183.68417666698224,,,,183.67823066699202,184.273512499989,184.7593254169915,left,0.4729024170082994,None,demo,001,2025-01-06_23h01.49.058,forced_choice,2024.2.4,None,2025-01-06 23h01.56.246581 -0500,
1e-07,1,162,2,10,left,0.8592142920242622,None,10,2,162,2,184.76759120900533,,,,184.7609972920036,185.3569239169883,186.22595245900447,left,0.8592142920242622,None,demo,001,2025-01-06_23h01.49.058,forced_choice,2024.2.4,None,2025-01-06 23h01.56.246581 -0500,
0.001,-1,163,3,10,left,0.18535641700145788,None,10,3,163,12,186.2350003339816,,,,186.22771904198453,186.8237217089918,187.0126820000005,left,0.18535641700145788,None,demo,001,2025-01-06_23h01.49.058,forced_choice,2024.2.4,None,2025-01-06 23h01.56.246581 -0500,
0.01,1,164,4,10,right,0.32575758299208246,None,10,4,164,5,187.0233254999912,,,,187.01458029198693,187.61131495898007,187.94252829198376,right,0.32575758299208246,None,demo,001,2025-01-06_23h01.49.058,forced_choice,2024.2.4,None,2025-01-06 23h01.56.246581 -0500,
0.01,-1,165,5,10,left,0.23471583297941834,None,10,5,165,13,187.94970062500215,,,,187.94419233399094,188.55727920899517,188.81086349999532,left,0.23471583297941834,None,demo,001,2025-01-06_23h01.49.058,forced_choice,2024.2.4,None,2025-01-06 23h01.56.246581 -0500,
1e-09,-1,166,6,10,left,0.6459768329805229,None,10,6,166,9,188.82374487500056,,,,188.81294987499132,189.40714179200586,190.05885241698707,left,0.6459768329805229,None,demo,001,2025-01-06_23h01.49.058,forced_choice,2024.2.4,None,2025-01-06 23h01.56.246581 -0500,
0.1,1,167,7,10,right,0.3720587909920141,None,10,7,167,6,190.0671025000047,,,,190.0606165000063,190.65690012500272,191.04216474998975,right,0.3720587909920141,None,demo,001,2025-01-06_23h01.49.058,forced_choice,2024.2.4,None,2025-01-06 23h01.56.246581 -0500,
0.1,-1,168,8,10,left,0.18775804102187976,None,10,8,168,14,191.0508387919981,,,,191.0439881249913,191.64019595898571,191.8428801249829,left,0.18775804102187976,None,demo,001,2025-01-06_23h01.49.058,forced_choice,2024.2.4,None,2025-01-06 23h01.56.246581 -0500,
1e-07,-1,169,9,10,right,0.47981037400313653,None,10,9,169,10,191.8508712920011,,,,191.8448389589903,192.44027179200202,192.9260078340012,right,0.47981037400313653,None,demo,001,2025-01-06_23h01.49.058,forced_choice,2024.2.4,None,2025-01-06 23h01.56.246581 -0500,
0.001,1,170,10,10,right,0.12122504200669937,None,10,10,170,4,192.9338432920049,,,,192.92795008400572,193.52365208399715,193.6600180839887,right,0.12122504200669937,None,demo,001,2025-01-06_23h01.49.058,forced_choice,2024.2.4,None,2025-01-06 23h01.56.246581 -0500,
1.0,-1,171,11,10,left,0.18891612501465715,None,10,11,171,15,193.66860416700365,,,,193.66179799998645,194.25701379199745,194.45921466700383,left,0.18891612501465715,None,demo,001,2025-01-06_23h01.49.058,forced_choice,2024.2.4,None,2025-01-06 23h01.56.246581 -0500,
1e-05,-1,172,12,10,left,0.4839348749956116,None,10,12,172,11,194.46780416698311,,,,194.46102920899284,195.0569262499921,195.54658291698433,left,0.4839348749956116,None,demo,001,2025-01-06_23h01.49.058,forced_choice,2024.2.4,None,2025-01-06 23h01.56.246581 -0500,
1e-05,1,173,13,10,right,0.3274751659773756,None,10,13,173,3,195.55664983400493,,,,195.5486050839827,196.14443604199914,196.4759280839935,right,0.3274751659773756,None,demo,001,2025-01-06_23h01.49.058,forced_choice,2024.2.4,None,2025-01-06 23h01.56.246581 -0500,
0.0,-1,174,14,10,left,0.47946399997454137,None,10,14,174,8,196.48371924998355,,,,196.47785808399203,197.07352266699309,197.55860516699613,left,0.47946399997454137,None,demo,001,2025-01-06_23h01.49.058,forced_choice,2024.2.4,None,2025-01-06 23h01.56.246581 -0500,
1.0,1,175,15,10,right,0.35783095797523856,None,10,15,175,7,197.56664858400472,,,,197.5602252089884,198.15694241700112,198.52577791700605,right,0.35783095797523856,None,demo,001,2025-01-06_23h01.49.058,forced_choice,2024.2.4,None,2025-01-06 23h01.56.246581 -0500,
1.0,1,176,0,11,right,0.34821454097982496,None,11,0,176,7,198.53404125000816,,,,198.5277245839825,199.12358487499296,199.47638949999237,right,0.34821454097982496,None,demo,001,2025-01-06_23h01.49.058,forced_choice,2024.2.4,None,2025-01-06 23h01.56.246581 -0500,
0.1,-1,177,1,11,left,0.36303558299550787,None,11,1,177,14,199.490381584008,,,,199.47817804198712,200.07384308398468,200.44259616700583,left,0.36303558299550787,None,demo,001,2025-01-06_23h01.49.058,forced_choice,2024.2.4,None,2025-01-06 23h01.56.246581 -0500,
0.001,1,178,2,11,right,0.45051304099615663,None,11,2,178,4,200.4512330419966,,,,200.44443583398242,201.04022654198343,201.4960119589814,right,0.45051304099615663,None,demo,001,2025-01-06_23h01.49.058,forced_choice,2024.2.4,None,2025-01-06 23h01.56.246581 -0500,
1e-09,-1,179,3,11,left,1.3284792079939507,None,11,3,179,9,201.5069894999906,,,,201.4978347499855,202.0952105000033,203.42593437500182,left,1.3284792079939507,None,demo,001,2025-01-06_23h01.49.058,forced_choice,2024.2.4,None,2025-01-06 23h01.56.246581 -0500,
0.01,-1,180,4,11,left,0.4417218739981763,None,11,4,180,13,203.43419916700805,,,,203.42767720899428,204.0240230000054,204.47615195898106,left,0.4417218739981763,None,demo,001,2025-01-06_23h01.49.058,forced_choice,2024.2.4,None,2025-01-06 23h01.56.246581 -0500,
1.0,-1,181,5,11,left,0.7080163329956122,None,11,5,181,15,204.48455458399258,,,,204.47805241699098,205.0736878339958,205.79192620899994,left,0.7080163329956122,None,demo,001,2025-01-06_23h01.49.058,forced_choice,2024.2.4,None,2025-01-06 23h01.56.246581 -0500,
0.0,1,182,6,11,left,0.5872730000119191,None,11,6,182,0,205.8003403339826,,,,205.7937992500083,206.39029179199133,206.97934233400156,left,0.5872730000119191,None,demo,001,2025-01-06_23h01.49.058,forced_choice,2024.2.4,None,2025-01-06 23h01.56.246581 -0500,
0.0,-1,183,7,11,right,1.3694697080063634,None,11,7,183,8,206.99039891699795,,,,206.98118962498847,207.57815970899537,208.95975320899743,right,1.3694697080063634,None,demo,001,2025-01-06_23h01.49.058,forced_choice,2024.2.4,None,2025-01-06 23h01.56.246581 -0500,
1e-05,-1,184,8,11,left,0.4845329579839017,None,11,8,184,11,208.9683102919953,,,,208.96174050000263,209.55698316698545,210.04650245900848,left,0.4845329579839017,None,demo,001,2025-01-06_23h01.49.058,forced_choice,2024.2.4,None,2025-01-06 23h01.56.246581 -0500,
1e-07,1,185,9,11,left,1.4475538329861593,None,11,9,185,2,210.05628975000582,,,,210.0484239590005,210.6449626669928,212.09660824999446,left,1.4475538329861593,None,demo,001,2025-01-06_23h01.49.058,forced_choice,2024.2.4,None,2025-01-06 23h01.56.246581 -0500,
0.1,1,186,10,11,right,0.6331687080091797,None,11,10,186,6,212.1067320840084,,,,212.09862624999369,212.69430958398152,213.32917908398667,right,0.6331687080091797,None,demo,001,2025-01-06_23h01.49.058,forced_choice,2024.2.4,None,2025-01-06 23h01.56.246581 -0500,
1e-09,1,187,11,11,left,1.186882665992016,None,11,11,187,1,213.3402732499817,,,,213.33098270898336,213.92353854200337,215.11224620899884,left,1.186882665992016,None,demo,001,2025-01-06_23h01.49.058,forced_choice,2024.2.4,None,2025-01-06 23h01.56.246581 -0500,
1e-07,-1,188,12,11,left,0.976364541973453,None,11,12,188,10,215.12341850000666,,,,215.11400616698666,215.72398887499003,216.70917508398998,left,0.976364541973453,None,demo,001,2025-01-06_23h01.49.058,forced_choice,2024.2.4,None,2025-01-06 23h01.56.246581 -0500,
0.01,1,189,13,11,right,0.4164952489954885,None,11,13,189,5,216.7170483749942,,,,216.71072983398335,217.30685320898192,217.72562287500477,right,0.4164952489954885,None,demo,001,2025-01-06_23h01.49.058,forced_choice,2024.2.4,None,2025-01-06 23h01.56.246581 -0500,
1e-05,1,190,14,11,right,0.47686862500268035,None,11,14,190,3,217.73419145899243,,,,217.7274108339916,218.32357545898412,218.80940358398948,right,0.47686862500268035,None,demo,001,2025-01-06_23h01.49.058,forced_choice,2024.2.4,None,2025-01-06 23h01.56.246581 -0500,
0.001,-1,191,15,11,left,0.45331254100892693,None,11,15,191,12,218.8171585839882,,,,218.8112925000023,219.40697729200474,219.8621327499859,left,0.45331254100892693,None,demo,001,2025-01-06_23h01.49.058,forced_choice,2024.2.4,None,2025-01-06 23h01.56.246581 -0500,
0.01,1,192,0,12,right,0.3026254999858793,None,12,0,192,5,219.87342445898685,,,,219.86386508398573,220.45689929198124,220.76315408400842,right,0.3026254999858793,None,demo,001,2025-01-06_23h01.49.058,forced_choice,2024.2.4,None,2025-01-06 23h01.56.246581 -0500,
1.0,-1,193,1,12,left,0.48484491600538604,None,12,1,193,15,220.77341724999133,,,,220.7649814169854,221.36143695900682,221.85922470898367,left,0.48484491600538604,None,demo,001,2025-01-06_23h01.49.058,forced_choice,2024.2.4,None,2025-01-06 23h01.56.246581 -0500,
1.0,1,194,2,12,right,0.7139152500021737,None,12,2,194,7,221.86774958399474,,,,221.86104020898347,222.45737570899655,223.17646258400055,right,0.7139152500021737,None,demo,001,2025-01-06_23h01.49.058,forced_choice,2024.2.4,None,2025-01-06 23h01.56.246581 -0500,
1e-09,-1,195,3,12,left,0.660972290992504,None,12,3,195,9,223.1848583339888,,,,223.1781957919884,223.7903517499799,224.4588779170008,left,0.660972290992504,None,demo,001,2025-01-06_23h01.49.058,forced_choice,2024.2.4,None,2025-01-06 23h01.56.246581 -0500,
1e-05,1,196,4,12,right,0.49927283299621195,None,12,4,196,3,224.46737574998406,,,,224.4609135419887,225.0569059170084,225.55910954199499,right,0.49927283299621195,None,demo,001,2025-01-06_23h01.49.058,forced_choice,2024.2.4,None,2025-01-06 23h01.56.246581 -0500,
0.0,1,197,5,12,left,0.9381687910063192,None,12,5,197,0,225.56738579200464,,,,225.56089599998086,226.1569345839962,227.10941933398135,left,0.9381687910063192,None,demo,001,2025-01-06_23h01.49.058,forced_choice,2024.2.4,None,2025-01-06 23h01.56.246581 -0500,
0.1,1,198,6,12,right,0.33033862500451505,None,12,6,198,6,227.1179020839918,,,,227.1111508749891,227.706846208981,228.04284254199592,right,0.33033862500451505,None,demo,001,2025-01-06_23h01.49.058,forced_choice,2024.2.4,None,2025-01-06 23h01.56.246581 -0500,
0.01,-1,199,7,12,left,0.42656104199704714,None,12,7,199,13,228.05093558400404,,,,228.04471133399056,228.64024962499388,229.07604966699728,left,0.42656104199704714,None,demo,001,2025-01-06_23h01.49.058,forced_choice,2024.2.4,None,2025-01-06 23h01.56.246581 -0500,
0.1,-1,200,8,12,left,0.39827233299729414,None,12,8,200,14,229.0842544999905,,,,229.07808949999162,229.67379683398758,230.07598108399543,left,0.39827233299729414,None,demo,001,2025-01-06_23h01.49.058,forced_choice,2024.2.4,None,2025-01-06 23h01.56.246581 -0500,
0.001,1,201,9,12,right,0.6074020409723744,None,12,9,201,4,230.08456612500595,,,,230.07793429199955,230.67363108400605,231.29253591698944,right,0.6074020409723744,None,demo,001,2025-01-06_23h01.49.058,forced_choice,2024.2.4,None,2025-01-06 23h01.56.246581 -0500,
0.0,-1,202,10,12,left,0.670965957979206,None,12,10,202,8,231.30033862500568,,,,231.2943941669946,231.890188749996,232.5758968750015,left,0.670965957979206,None,demo,001,2025-01-06_23h01.49.058,forced_choice,2024.2.4,None,2025-01-06 23h01.56.246581 -0500,
1e-05,-1,203,11,12,left,0.4104790829878766,None,12,11,203,11,232.58448987500742,,,,232.57770795898978,233.17363062498043,233.59208912498434,left,0.4104790829878766,None,demo,001,2025-01-06_23h01.49.058,forced_choice,2024.2.4,None,2025-01-06 23h01.56.246581 -0500,
1e-07,-1,204,12,12,left,0.7665845830051694,None,12,12,204,10,233.60076016699895,,,,233.59391504200175,234.19032241698005,234.9586902919982,left,0.7665845830051694,None,demo,001,2025-01-06_23h01.49.058,forced_choice,2024.2.4,None,2025-01-06 23h01.56.246581 -0500,
1e-07,1,205,13,12,right,0.4480903740040958,None,12,13,205,2,234.966908375005,,,,234.9604521250003,235.55682083399734,236.00898383400636,right,0.4480903740040958,None,demo,001,2025-01-06_23h01.49.058,forced_choice,2024.2.4,None,2025-01-06 23h01.56.246581 -0500,
0.001,-1,206,14,12,left,0.39095733300200664,None,12,14,206,12,236.01558958398527,,,,236.010947999981,236.60693995899055,237.00900975000695,left,0.39095733300200664,None,demo,001,2025-01-06_23h01.49.058,forced_choice,2024.2.4,None,2025-01-06 23h01.56.246581 -0500,
1e-09,1,207,15,12,left,0.6111542499857023,None,12,15,207,1,237.01750129199354,,,,237.0108515000029,237.60685066698352,238.2256463340018,left,0.6111542499857023,None,demo,001,2025-01-06_23h01.49.058,forced_choice,2024.2.4,None,2025-01-06 23h01.56.246581 -0500,
0.001,1,208,0,13,right,0.3881982080056332,None,13,0,208,4,238.23466337498394,,,,238.22768491698662,238.8235986669897,239.22576241698698,right,0.3881982080056332,None,demo,001,2025-01-06_23h01.49.058,forced_choice,2024.2.4,None,2025-01-06 23h01.56.246581 -0500,
1.0,1,209,1,13,right,0.3114679580030497,None,13,1,209,7,239.23431195900775,,,,239.22761095900205,239.82348720898153,240.14264974999242,right,0.3114679580030497,None,demo,001,2025-01-06_23h01.49.058,forced_choice,2024.2.4,None,2025-01-06 23h01.56.246581 -0500,
0.1,-1,210,2,13,left,0.38463379198219627,None,13,2,210,14,240.15142995899078,,,,240.1446291669854,240.74027529198793,241.1293698749796,left,0.38463379198219627,None,demo,001,2025-01-06_23h01.49.058,forced_choice,2024.2.4,None,2025-01-06 23h01.56.246581 -0500,
0.0,1,211,3,13,left,0.605244499980472,None,13,3,211,0,241.14007945900084,,,,241.1313382500084,241.72764537498006,242.34204258400132,left,0.605244499980472,None,demo,001,2025-01-06_23h01.49.058,forced_choice,2024.2.4,None,2025-01-06 23h01.56.246581 -0500,
1e-05,-1,212,4,13,left,0.4371289999980945,None,13,4,212,11,242.35077150000143,,,,242.34387074998813,242.94055749999825,243.37924862498767,left,0.4371289999980945,None,demo,001,2025-01-06_23h01.49.058,forced_choice,2024.2.4,None,2025-01-06 23h01.56.246581 -0500,
1e-05,1,213,5,13,right,0.41255449899472296,None,13,5,213,3,243.39011604199186,,,,243.38135016700835,243.97817245899932,244.39656516700052,right,0.41255449899472296,None,demo,001,2025-01-06_23h01.49.058,forced_choice,2024.2.4,None,2025-01-06 23h01.56.246581 -0500,
0.0,-1,214,6,13,left,0.5212488750112243,None,13,6,214,8,244.4068688339903,,,,244.3983397919801,244.99446266700397,245.5253572090005,left,0.5212488750112243,None,demo,001,2025-01-06_23h01.49.058,forced_choice,2024.2.4,None,2025-01-06 23h01.56.246581 -0500,
1e-07,1,215,7,13,right,0.50810329100932,None,13,7,215,2,245.5328650419833,,,,245.52734304199112,246.1235912090051,246.64212308399146,right,0.50810329100932,None,demo,001,2025-01-06_23h01.49.058,forced_choice,2024.2.4,None,2025-01-06 23h01.56.246581 -0500,
0.01,-1,216,8,13,left,0.2946062920091208,None,13,8,216,13,246.65036183400662,,,,246.64383270899998,247.24017641699174,247.54252233399893,left,0.2946062920091208,None,demo,001,2025-01-06_23h01.49.058,forced_choice,2024.2.4,None,2025-01-06 23h01.56.246581 -0500,
1e-07,-1,217,9,13,right,0.4774199159874115,None,13,9,217,10,247.55055695900228,,,,247.54446491698036,248.1402135840035,248.62585716700414,right,0.4774199159874115,None,demo,001,2025-01-06_23h01.49.058,forced_choice,2024.2.4,None,2025-01-06 23h01.56.246581 -0500,
1e-09,-1,218,10,13,left,0.863135958003113,None,13,10,218,9,248.63416049999068,,,,248.62767229200108,249.22360458399635,250.0933344590012,left,0.863135958003113,None,demo,001,2025-01-06_23h01.49.058,forced_choice,2024.2.4,None,2025-01-06 23h01.56.246581 -0500,
0.001,-1,219,11,13,left,0.5945023749954998,None,13,11,219,12,250.10169941699132,,,,250.09502408400294,250.69019837499945,251.29254399999627,left,0.5945023749954998,None,demo,001,2025-01-06_23h01.49.058,forced_choice,2024.2.4,None,2025-01-06 23h01.56.246581 -0500,
0.01,1,220,12,13,right,0.4913825830153655,None,13,12,220,5,251.30137437500525,,,,251.29451645899098,251.89028079199488,252.39251954198699,right,0.4913825830153655,None,demo,001,2025-01-06_23h01.49.058,forced_choice,2024.2.4,None,2025-01-06 23h01.56.246581 -0500,
0.1,1,221,13,13,right,0.6273554170038551,None,13,13,221,6,252.40096029199776,,,,252.39441437498317,252.99028500000713,253.62516991698067,right,0.6273554170038551,None,demo,001,2025-01-06_23h01.49.058,forced_choice,2024.2.4,None,2025-01-06 23h01.56.246581 -0500,
1.0,-1,222,14,13,left,0.5639229160151444,None,13,14,222,15,253.6334197089891,,,,253.62695124998572,254.2236538750003,254.7920484589995,left,0.5639229160151444,None,demo,001,2025-01-06_23h01.49.058,forced_choice,2024.2.4,None,2025-01-06 23h01.56.246581 -0500,
1e-09,1,223,15,13,right,0.6082346670154948,None,13,15,223,1,254.8000931669958,,,,254.79380845898413,255.39030458399793,256.0090922919917,right,0.6082346670154948,None,demo,001,2025-01-06_23h01.49.058,forced_choice,2024.2.4,None,2025-01-06 23h01.56.246581 -0500,
0.001,1,224,0,14,left,0.6085001250030473,None,14,0,224,4,256.0174798340013,,,,256.0108113339811,256.607038083981,257.2266611249943,left,0.6085001250030473,None,demo,001,2025-01-06_23h01.49.058,forced_choice,2024.2.4,None,2025-01-06 23h01.56.246581 -0500,
1e-09,-1,225,1,14,right,0.7377588740200736,None,14,1,225,9,257.23515379198943,,,,257.22846054198453,257.82358787499834,258.57609049999155,right,0.7377588740200736,None,demo,001,2025-01-06_23h01.49.058,forced_choice,2024.2.4,None,2025-01-06 23h01.56.246581 -0500,
0.01,1,226,2,14,right,0.6837511239864398,None,14,2,226,5,258.5841067919973,,,,258.5780715419969,259.173594708991,259.86322912498144,right,0.6837511239864398,None,demo,001,2025-01-06_23h01.49.058,forced_choice,2024.2.4,None,2025-01-06 23h01.56.246581 -0500,
1e-09,1,227,3,14,right,0.9247726250032429,None,14,3,227,1,259.8733532920014,,,,259.86521029198775,260.4616429589805,261.39203408398316,right,0.9247726250032429,None,demo,001,2025-01-06_23h01.49.058,forced_choice,2024.2.4,None,2025-01-06 23h01.56.246581 -0500,
0.1,1,228,4,14,right,0.8161989579966757,None,14,4,228,6,261.3998737919901,,,,261.39375858398853,261.9901321250072,262.80935424999916,right,0.8161989579966757,None,demo,001,2025-01-06_23h01.49.058,forced_choice,2024.2.4,None,2025-01-06 23h01.56.246581 -0500,
1e-05,1,229,5,14,right,0.6583500829874538,None,14,5,229,3,262.81755720899673,,,,262.81107216698,263.4069116669998,264.0755715839914,right,0.6583500829874538,None,demo,001,2025-01-06_23h01.49.058,forced_choice,2024.2.4,None,2025-01-06 23h01.56.246581 -0500,
1e-07,-1,230,6,14,left,0.6712978330033366,None,14,6,230,10,264.0827370839834,,,,264.0774487500021,264.6738807919901,265.3587721250078,left,0.6712978330033366,None,demo,001,2025-01-06_23h01.49.058,forced_choice,2024.2.4,None,2025-01-06 23h01.56.246581 -0500,
0.0,1,231,7,14,right,0.838307916012127,None,14,7,231,0,265.36708941700635,,,,265.36061987499124,265.9568609169801,266.8094278339995,right,0.838307916012127,None,demo,001,2025-01-06_23h01.49.058,forced_choice,2024.2.4,None,2025-01-06 23h01.56.246581 -0500,
0.001,-1,232,8,14,left,0.5241482499986887,None,14,8,232,12,266.8181809170055,,,,266.8114544590062,267.4070377500029,267.9420417090005,left,0.5241482499986887,None,demo,001,2025-01-06_23h01.49.058,forced_choice,2024.2.4,None,2025-01-06 23h01.56.246581 -0500,
0.01,-1,233,9,14,left,0.6548244990117382,None,14,9,233,13,267.95069745898945,,,,267.94381924998015,268.5402777919953,269.20886495898594,left,0.6548244990117382,None,demo,001,2025-01-06_23h01.49.058,forced_choice,2024.2.4,None,2025-01-06 23h01.56.246581 -0500,
1.0,1,234,10,14,right,0.6652593750040978,None,14,10,234,7,269.217528499983,,,,269.21066362498095,269.80687020899495,270.4765327500063,right,0.6652593750040978,None,demo,001,2025-01-06_23h01.49.058,forced_choice,2024.2.4,None,2025-01-06 23h01.56.246581 -0500,
1e-05,-1,235,11,14,right,0.871407917002216,None,14,11,235,11,270.4848102919932,,,,270.47827074999805,271.07361958399997,271.94653200000175,right,0.871407917002216,None,demo,001,2025-01-06_23h01.49.058,forced_choice,2024.2.4,None,2025-01-06 23h01.56.246581 -0500,
1e-07,1,236,12,14,left,0.9124155410099775,None,14,12,236,2,271.95678199999384,,,,271.9481875000056,272.5446168339986,273.4596095419838,left,0.9124155410099775,None,demo,001,2025-01-06_23h01.49.058,forced_choice,2024.2.4,None,2025-01-06 23h01.56.246581 -0500,
0.1,-1,237,13,14,left,0.5257380830007605,None,14,13,237,14,273.46799966698745,,,,273.46139058397966,274.0573772919888,274.5919363340072,left,0.5257380830007605,None,demo,001,2025-01-06_23h01.49.058,forced_choice,2024.2.4,None,2025-01-06 23h01.56.246581 -0500,
0.0,-1,238,14,14,left,0.5486337080074009,None,14,14,238,8,274.60047237499384,,,,274.59376966700074,275.1903551669966,275.7427332919906,left,0.5486337080074009,None,demo,001,2025-01-06_23h01.49.058,forced_choice,2024.2.4,None,2025-01-06 23h01.56.246581 -0500,
1.0,-1,239,15,14,left,0.72987650000141,None,14,15,239,15,275.75190191698493,,,,275.744472499995,276.3402082499815,277.0762257919996,left,0.72987650000141,None,demo,001,2025-01-06_23h01.49.058,forced_choice,2024.2.4,None,2025-01-06 23h01.56.246581 -0500,
