blobHeight,blobWidth,offset,thisN,thisTrialN,thisRepN,key_resp.keys,key_resp.rt,key_resp.duration,trials.thisRepN,trials.thisTrialN,trials.thisN,trials.thisIndex,thisRow.t,notes,Wait.started,start_trial_text.started,start_key_resp.started,Wait.stopped,start_key_resp.keys,start_key_resp.rt,start_key_resp.duration,trial.started,noise.started,blob_1.started,blob_1.stopped,blob_2.started,blob_2.stopped,noise_2.started,key_resp.started,noise.stopped,trial.stopped,trials.key_resp.keys,trials.key_resp.rt,trials.key_resp.duration,participant,session,date,expName,psychopyVersion,frameRate,expStart,
,,,,,,,,,,,,,,,0.011653833906166255,0.016211666981689632,0.016211666981689632,0.8830190839944407,space,0.8384760830085725,None,,,,,,,,,,,,,,demo,001,2025-03-24_17h14.42.856,Bonnen2015_2afc,2024.2.4,None,2025-03-24 17h14.49.320632 -0400,
0.1489,0.47,0.01,0,0,0,right,0.755414874991402,None,0,0,0,10,0.9640662089223042,,,,,,,,,0.9366369999479502,0.9640662089223042,1.0008939169347286,1.2519814999541268,1.335948041989468,1.5851115419063717,1.6357994589488953,1.6357994589488953,1.7160672089084983,2.401881624944508,right,0.755414874991402,None,demo,001,2025-03-24_17h14.42.856,Bonnen2015_2afc,2024.2.4,None,2025-03-24 17h14.49.320632 -0400,
0.2593,0.27,-0.16,1,1,0,left,0.0796785419806838,None,0,1,1,45,2.5425482919672504,,,,,,,,,2.436291499994695,2.5425482919672504,2.5651593749644235,2.8239474169677123,2.856790916994214,3.1187542089028284,3.152281874907203,3.152281874907203,,3.233511541970074,left,0.0796785419806838,None,demo,001,2025-03-24_17h14.42.856,Bonnen2015_2afc,2024.2.4,None,2025-03-24 17h14.49.320632 -0400,
0.2593,0.27,-0.01,2,2,0,left,0.30929312494117767,None,0,2,2,29,3.270453625009395,,,,,,,,,3.2510213339701295,3.270453625009395,3.338309666956775,3.6017015000106767,3.6857766249449924,3.9369777919491753,3.9854849169496447,3.9854849169496447,4.033379375003278,4.301759083988145,left,0.30929312494117767,None,demo,001,2025-03-24_17h14.42.856,Bonnen2015_2afc,2024.2.4,None,2025-03-24 17h14.49.320632 -0400,
1.0,0.07,-0.02,3,3,0,left,0.1498205839889124,None,0,3,3,32,4.360341874998994,,,,,,,,,4.328707708977163,4.360341874998994,4.413172666914761,4.668917541974224,4.753364874981344,5.021450958913192,5.05269729194697,5.05269729194697,5.116123333922587,5.20482958399225,left,0.1498205839889124,None,demo,001,2025-03-24_17h14.42.856,Bonnen2015_2afc,2024.2.4,None,2025-03-24 17h14.49.320632 -0400,
0.2593,0.27,0.04,4,4,0,right,0.10986904101446271,None,0,4,4,17,5.248161249910481,,,,,,,,,5.227054416900501,5.248161249910481,5.314781958935782,5.5723449169890955,5.6685871669324115,5.918473958969116,5.969187708920799,5.969187708920799,5.999534624977969,6.084665416972712,right,0.10986904101446271,None,demo,001,2025-03-24_17h14.42.856,Bonnen2015_2afc,2024.2.4,None,2025-03-24 17h14.49.320632 -0400,
0.1045,0.67,-0.02,5,5,0,right,0.2512982920743525,None,0,5,5,35,6.1294544589472935,,,,,,,,,6.10870158392936,6.1294544589472935,6.197303166962229,6.457775916904211,6.537463083979674,6.786576458951458,6.835703833959997,6.835703833959997,6.8827422090107575,7.088399208965711,right,0.2512982920743525,None,demo,001,2025-03-24_17h14.42.856,Bonnen2015_2afc,2024.2.4,None,2025-03-24 17h14.49.320632 -0400,
0.2593,0.27,0.01,6,6,0,right,0.26484445901587605,None,0,6,6,9,7.137091959011741,,,,,,,,,7.11395079200156,7.137091959011741,7.190495374961756,7.451935083954595,7.552117459010333,7.802984084002674,7.837708916980773,7.837708916980773,7.88273087493144,8.10454245901201,right,0.26484445901587605,None,demo,001,2025-03-24_17h14.42.856,Bonnen2015_2afc,2024.2.4,None,2025-03-24 17h14.49.320632 -0400,
1.0,0.07,0.04,7,7,0,right,0.07134066696744412,None,0,7,7,16,8.153188374941237,,,,,,,,,8.130172541947104,8.153188374941237,8.20655716699548,8.468994499999098,8.568491208949126,8.818348624976352,8.86903966695536,8.86903966695536,8.916093749925494,8.950137416948564,right,0.07134066696744412,None,demo,001,2025-03-24_17h14.42.856,Bonnen2015_2afc,2024.2.4,None,2025-03-24 17h14.49.320632 -0400,
0.1045,0.67,0.04,8,8,0,right,0.24947204208001494,None,0,8,8,19,8.985294041922316,,,,,,,,,8.968144249985926,8.985294041922316,9.051754208980128,9.302322083967738,9.402936166967265,9.651728999917395,9.702562124934047,9.702562124934047,9.732855291920714,9.954593624919653,right,0.24947204208001494,None,demo,001,2025-03-24_17h14.42.856,Bonnen2015_2afc,2024.2.4,None,2025-03-24 17h14.49.320632 -0400,
1.0,0.07,-0.08,9,9,0,left,0.10457399999722838,None,0,9,9,40,10.003312584012747,,,,,,,,,9.980017083929852,10.003312584012747,10.056686541996896,10.318713083979674,10.418598041986115,10.67077037494164,10.721330708940513,10.721330708940513,10.749575374997221,10.834675499936566,left,0.10457399999722838,None,demo,001,2025-03-24_17h14.42.856,Bonnen2015_2afc,2024.2.4,None,2025-03-24 17h14.49.320632 -0400,
1.0,0.07,-0.04,10,10,0,left,0.18483275000471622,None,0,10,10,36,10.877196041983552,,,,,,,,,10.856284083914943,10.877196041983552,10.943473458988592,11.204962833900936,11.285185416927561,11.535493416944519,11.585836041951552,11.585836041951552,11.632855791947804,11.78409324993845,left,0.18483275000471622,None,demo,001,2025-03-24_17h14.42.856,Bonnen2015_2afc,2024.2.4,None,2025-03-24 17h14.49.320632 -0400,
0.1045,0.67,0.16,11,11,0,right,0.15837120893411338,None,0,11,11,27,11.828827459015884,,,,,,,,,11.8063743339153,11.828827459015884,11.89487212500535,12.15355758392252,12.235136874951422,12.485276374965906,12.535772874951363,12.535772874951363,12.582760583958589,12.7012864589924,right,0.15837120893411338,None,demo,001,2025-03-24_17h14.42.856,Bonnen2015_2afc,2024.2.4,None,2025-03-24 17h14.49.320632 -0400,
0.1489,0.47,-0.02,12,12,0,left,0.3561828749952838,None,0,12,12,34,12.74596649990417,,,,,,,,,12.724570583901368,12.74596649990417,12.82052454201039,13.085794708924368,13.15175758395344,13.402914625010453,13.453044249908999,13.453044249908999,13.499481291975826,13.818403374985792,left,0.3561828749952838,None,demo,001,2025-03-24_17h14.42.856,Bonnen2015_2afc,2024.2.4,None,2025-03-24 17h14.49.320632 -0400,
0.2593,0.27,-0.08,13,13,0,left,0.17059116601012647,None,0,13,13,41,13.871089291991666,,,,,,,,,13.847209458937868,13.871089291991666,13.924825791968033,14.185097083915025,14.268576000002213,14.519819416920654,14.570337167009711,14.570337167009711,14.632800083956681,14.75093320896849,left,0.17059116601012647,None,demo,001,2025-03-24_17h14.42.856,Bonnen2015_2afc,2024.2.4,None,2025-03-24 17h14.49.320632 -0400,
0.1489,0.47,0.08,14,14,0,right,0.1235332500655204,None,0,14,14,22,14.796293666935526,,,,,,,,,14.774834249983542,14.796293666935526,14.863535417011008,15.120569999911822,15.201809999998659,15.452105208998546,15.502655208925717,15.502655208925717,15.549439708935097,15.634611584013328,right,0.1235332500655204,None,demo,001,2025-03-24_17h14.42.856,Bonnen2015_2afc,2024.2.4,None,2025-03-24 17h14.49.320632 -0400,
0.1045,0.67,0.005,15,15,0,left,0.5694469589507207,None,0,15,15,7,15.677142374916002,,,,,,,,,15.656570333987474,15.677142374916002,15.747053291997872,16.005134499981068,16.08540495892521,16.335471833939664,16.385159208904952,16.385159208904952,16.432752249995247,16.968469084007666,left,0.5694469589507207,None,demo,001,2025-03-24_17h14.42.856,Bonnen2015_2afc,2024.2.4,None,2025-03-24 17h14.49.320632 -0400,
0.1489,0.47,0.02,16,16,0,right,0.14530504099093378,None,0,16,16,14,17.022898541996256,,,,,,,,,16.99893904197961,17.022898541996256,17.084370750002563,17.33806400001049,17.41863545891829,17.668580124969594,17.718612958909944,17.718612958909944,17.782823541900143,17.86795995896682,right,0.14530504099093378,None,demo,001,2025-03-24_17h14.42.856,Bonnen2015_2afc,2024.2.4,None,2025-03-24 17h14.49.320632 -0400,
0.1045,0.67,0.01,17,17,0,right,0.267381208948791,None,0,17,17,11,17.910323958960362,,,,,,,,,17.88959154195618,17.910323958960362,17.977095416979864,18.2361759589985,18.31936195900198,18.569316959008574,18.618426749948412,18.618426749948412,18.66629258391913,18.888204916962422,right,0.267381208948791,None,demo,001,2025-03-24_17h14.42.856,Bonnen2015_2afc,2024.2.4,None,2025-03-24 17h14.49.320632 -0400,
0.1489,0.47,-0.16,18,18,0,left,0.1671302089234814,None,0,18,18,46,18.93785508396104,,,,,,,,,18.91447612491902,18.93785508396104,18.990979624912143,19.252123999991454,19.3517513750121,19.603574124979787,19.65232012490742,19.65232012490742,19.699580166954547,19.821614541928284,left,0.1671302089234814,None,demo,001,2025-03-24_17h14.42.856,Bonnen2015_2afc,2024.2.4,None,2025-03-24 17h14.49.320632 -0400,
0.1489,0.47,-0.08,19,19,0,left,0.2472918329294771,None,0,19,19,42,19.865592499962077,,,,,,,,,19.844383624964394,19.865592499962077,19.93268937501125,20.190346958930604,20.285886416910216,20.536234416998923,20.5857730419375,20.5857730419375,20.616148041910492,20.834998750011437,left,0.2472918329294771,None,demo,001,2025-03-24_17h14.42.856,Bonnen2015_2afc,2024.2.4,None,2025-03-24 17h14.49.320632 -0400,
0.1045,0.67,-0.16,20,20,0,left,0.20075370802078396,None,0,20,20,47,20.882829417008907,,,,,,,,,20.860661583952606,20.882829417008907,20.93809670896735,21.20248883392196,21.287828583968803,21.55180349992588,21.585806209011935,21.585806209011935,21.63280533393845,21.78963625000324,left,0.20075370802078396,None,demo,001,2025-03-24_17h14.42.856,Bonnen2015_2afc,2024.2.4,None,2025-03-24 17h14.49.320632 -0400,
0.2593,0.27,0.0,21,21,0,right,0.7860250829253346,None,0,21,21,1,21.83605154196266,,,,,,,,,21.813723500003107,21.83605154196266,21.903748166980222,22.169319791952148,22.251874291920103,22.502390292007476,22.551781291957013,22.551781291957013,22.582740333979018,23.35160629195161,right,0.7860250829253346,None,demo,001,2025-03-24_17h14.42.856,Bonnen2015_2afc,2024.2.4,None,2025-03-24 17h14.49.320632 -0400,
1.0,0.07,-0.16,22,22,0,left,0.13284079101867974,None,0,22,22,44,23.406830541905947,,,,,,,,,23.382128541939892,23.406830541905947,23.462026416906156,23.719751291908324,23.802205667016096,24.054352417006157,24.102267666952685,24.102267666952685,24.166114291991107,24.23702666698955,left,0.13284079101867974,None,demo,001,2025-03-24_17h14.42.856,Bonnen2015_2afc,2024.2.4,None,2025-03-24 17h14.49.320632 -0400,
0.1045,0.67,0.0,23,23,0,right,0.4208339999895543,None,0,23,23,3,24.278641292010434,,,,,,,,,24.258336249971762,24.278641292010434,24.344763916917145,24.60339258390013,24.702055749949068,24.951786708901636,25.00175583397504,25.00175583397504,25.032693124958314,25.435080958995968,right,0.4208339999895543,None,demo,001,2025-03-24_17h14.42.856,Bonnen2015_2afc,2024.2.4,None,2025-03-24 17h14.49.320632 -0400,
1.0,0.07,0.16,24,24,0,right,0.1851355410180986,None,0,24,24,24,25.486665625008754,,,,,,,,,25.46336079190951,25.486665625008754,25.540204874938354,25.80360366695095,25.885802958975546,26.135424625012092,26.18518183392007,26.18518183392007,26.24944995890837,26.384290333953686,right,0.1851355410180986,None,demo,001,2025-03-24_17h14.42.856,Bonnen2015_2afc,2024.2.4,None,2025-03-24 17h14.49.320632 -0400,
0.1045,0.67,-0.08,25,25,0,left,0.22981737495865673,None,0,25,25,43,26.428424083977006,,,,,,,,,26.40717899997253,26.428424083977006,26.49700504192151,26.755994291976094,26.83700099994894,27.102043458959088,27.13551816693507,27.13551816693507,27.18268183397595,27.36802195897326,left,0.22981737495865673,None,demo,001,2025-03-24_17h14.42.856,Bonnen2015_2afc,2024.2.4,None,2025-03-24 17h14.49.320632 -0400,
0.1489,0.47,-0.01,26,26,0,left,0.5284870000323281,None,0,26,26,30,27.415933749987744,,,,,,,,,27.393169833929278,27.415933749987744,27.468725041951984,27.71882533398457,27.818603541934863,28.06884891691152,28.1183754169615,28.1183754169615,28.166189291980118,28.651742791989818,left,0.5284870000323281,None,demo,001,2025-03-24_17h14.42.856,Bonnen2015_2afc,2024.2.4,None,2025-03-24 17h14.49.320632 -0400,
0.1489,0.47,-0.04,27,27,0,left,0.31741154100745916,None,0,27,27,38,28.70441949996166,,,,,,,,,28.680745791993104,28.70441949996166,28.759596833959222,29.018371667014435,29.106352541944943,29.36886362498626,29.40206891694106,29.40206891694106,29.466125749982893,29.720949708949775,left,0.31741154100745916,None,demo,001,2025-03-24_17h14.42.856,Bonnen2015_2afc,2024.2.4,None,2025-03-24 17h14.49.320632 -0400,
0.2593,0.27,-0.04,28,28,0,left,0.26089666597545147,None,0,28,28,37,29.770134083926678,,,,,,,,,29.74692674994003,29.770134083926678,29.824114749906585,30.08556062495336,30.18505837500561,30.436682124971412,30.48523724998813,30.48523724998813,30.53305616695434,30.751746958936565,left,0.26089666597545147,None,demo,001,2025-03-24_17h14.42.856,Bonnen2015_2afc,2024.2.4,None,2025-03-24 17h14.49.320632 -0400,
0.1045,0.67,0.02,29,29,0,right,0.4883258749032393,None,0,29,29,15,30.802036250010133,,,,,,,,,30.77872654190287,30.802036250010133,30.855134291923605,31.11915279191453,31.20192620891612,31.451883583911695,31.502197499969043,31.502197499969043,31.549040791927837,32.00155887496658,right,0.4883258749032393,None,demo,001,2025-03-24_17h14.42.856,Bonnen2015_2afc,2024.2.4,None,2025-03-24 17h14.49.320632 -0400,
1.0,0.07,-0.01,30,30,0,left,0.263362625031732,None,0,30,30,28,32.05324912490323,,,,,,,,,32.02925049990881,32.05324912490323,32.10851054196246,32.36907545896247,32.45467274996918,32.719154416932724,32.75171329197474,32.75171329197474,32.81604454200715,33.01814816694241,left,0.263362625031732,None,demo,001,2025-03-24_17h14.42.856,Bonnen2015_2afc,2024.2.4,None,2025-03-24 17h14.49.320632 -0400,
1.0,0.07,0.005,31,31,0,right,0.3422921249875799,None,0,31,31,4,33.06615149998106,,,,,,,,,33.04353641695343,33.06615149998106,33.11992795893457,33.38517070899252,33.468373083975166,33.718448792002164,33.76862624997739,33.76862624997739,33.81611645896919,34.118437208933756,right,0.3422921249875799,None,demo,001,2025-03-24_17h14.42.856,Bonnen2015_2afc,2024.2.4,None,2025-03-24 17h14.49.320632 -0400,
1.0,0.07,0.02,32,32,0,right,0.20035029097925872,None,0,32,32,12,34.168896499904804,,,,,,,,,34.14562958397437,34.168896499904804,34.22294762497768,34.48541199997999,34.568926958949305,34.81903716700617,34.87004879198503,34.87004879198503,34.9160494589014,35.08479583391454,right,0.20035029097925872,None,demo,001,2025-03-24_17h14.42.856,Bonnen2015_2afc,2024.2.4,None,2025-03-24 17h14.49.320632 -0400,
1.0,0.07,0.08,33,33,0,right,0.156742291059345,None,0,33,33,20,35.13278358394746,,,,,,,,,35.10984137491323,35.13278358394746,35.185853166971356,35.435358249931596,35.53527233400382,35.785101166926324,35.83745733392425,35.83745733392425,35.882857958902605,36.0010989169823,right,0.156742291059345,None,demo,001,2025-03-24_17h14.42.856,Bonnen2015_2afc,2024.2.4,None,2025-03-24 17h14.49.320632 -0400,
0.2593,0.27,0.08,34,34,0,right,0.15882137499284,None,0,34,34,21,36.046115208999254,,,,,,,,,36.02451737492811,36.046115208999254,36.113842291990295,36.372800208977424,36.453061708947644,36.70180820894893,36.75184312497731,36.75184312497731,36.79940799996257,36.91801599995233,right,0.15882137499284,None,demo,001,2025-03-24_17h14.42.856,Bonnen2015_2afc,2024.2.4,None,2025-03-24 17h14.49.320632 -0400,
1.0,0.07,0.0,35,35,0,right,0.37375733396038413,None,0,35,35,0,36.963432666962035,,,,,,,,,36.94162024999969,36.963432666962035,37.032303916988894,37.29017691698391,37.370815375004895,37.63518716697581,37.668689791928045,37.668689791928045,37.71608699997887,38.05157520901412,right,0.37375733396038413,None,demo,001,2025-03-24_17h14.42.856,Bonnen2015_2afc,2024.2.4,None,2025-03-24 17h14.49.320632 -0400,
0.2593,0.27,0.16,36,36,0,right,0.14948554197326303,None,0,36,36,25,38.10290958394762,,,,,,,,,38.0793073750101,38.10290958394762,38.15857754193712,38.41919554199558,38.50190929195378,38.75198520894628,38.80251029192004,38.80251029192004,38.86650174995884,38.95465074991807,right,0.14948554197326303,None,demo,001,2025-03-24_17h14.42.856,Bonnen2015_2afc,2024.2.4,None,2025-03-24 17h14.49.320632 -0400,
0.1045,0.67,-0.04,37,37,0,left,0.31092833389993757,None,0,37,37,39,38.99781724996865,,,,,,,,,38.976776958908886,38.99781724996865,39.0653063749196,39.323514083982445,39.40387254196685,39.6686616250081,39.719552416936494,39.719552416936494,39.74935416691005,40.0346981670009,left,0.31092833389993757,None,demo,001,2025-03-24_17h14.42.856,Bonnen2015_2afc,2024.2.4,None,2025-03-24 17h14.49.320632 -0400,
0.1489,0.47,0.0,38,38,0,right,0.5345015409402549,None,0,38,38,2,40.0847995840013,,,,,,,,,40.06156529195141,40.0847995840013,40.13745445897803,40.38619287498295,40.48536716692615,40.73559416690841,40.785025083925575,40.785025083925575,40.83282699994743,41.32110558392014,right,0.5345015409402549,None,demo,001,2025-03-24_17h14.42.856,Bonnen2015_2afc,2024.2.4,None,2025-03-24 17h14.49.320632 -0400,
0.2593,0.27,0.02,39,39,0,right,0.12882041605189443,None,0,39,39,13,41.37501729198266,,,,,,,,,41.35115004191175,41.37501729198266,41.43215487501584,41.69027537491638,41.78675758396275,42.03574695892166,42.08579545898829,42.08579545898829,42.13268745900132,42.21810779196676,right,0.12882041605189443,None,demo,001,2025-03-24_17h14.42.856,Bonnen2015_2afc,2024.2.4,None,2025-03-24 17h14.49.320632 -0400,
0.1489,0.47,0.16,40,40,0,right,0.20776437502354383,None,0,40,40,26,42.26069679192733,,,,,,,,,42.23965716699604,42.26069679192733,42.32736825000029,42.58651512500364,42.668453334015794,42.919006292009726,42.96843820891809,42.96843820891809,43.016157291946,43.18471487495117,right,0.20776437502354383,None,demo,001,2025-03-24_17h14.42.856,Bonnen2015_2afc,2024.2.4,None,2025-03-24 17h14.49.320632 -0400,
0.1045,0.67,-0.01,41,41,0,left,0.26765345910098404,None,0,41,41,31,43.23115354194306,,,,,,,,,43.208918541902676,43.23115354194306,43.299724541953765,43.557640999904834,43.637881083996035,43.90182708390057,43.93517458392307,43.93517458392307,43.982687833951786,44.2062266250141,left,0.26765345910098404,None,demo,001,2025-03-24_17h14.42.856,Bonnen2015_2afc,2024.2.4,None,2025-03-24 17h14.49.320632 -0400,
0.1489,0.47,0.005,42,42,0,left,0.42738137498963624,None,0,42,42,6,44.25542249996215,,,,,,,,,44.23219499993138,44.25542249996215,44.308737791958265,44.56845074996818,44.668800416984595,44.918748874915764,44.96881183399819,44.96881183399819,45.016033999971114,45.40149404190015,left,0.42738137498963624,None,demo,001,2025-03-24_17h14.42.856,Bonnen2015_2afc,2024.2.4,None,2025-03-24 17h14.49.320632 -0400,
0.1489,0.47,0.04,43,43,0,right,0.26707412488758564,None,0,43,43,18,45.45391933398787,,,,,,,,,45.429330667015165,45.45391933398787,45.51666274992749,45.77593549992889,45.854915208998136,46.118662041961215,46.15213175001554,46.15213175001554,46.21605370892212,46.42270479199942,right,0.26707412488758564,None,demo,001,2025-03-24_17h14.42.856,Bonnen2015_2afc,2024.2.4,None,2025-03-24 17h14.49.320632 -0400,
1.0,0.07,0.01,44,44,0,right,0.3165164579404518,None,0,44,44,8,46.47001145896502,,,,,,,,,46.44775374990422,46.47001145896502,46.52372012496926,46.785441166954115,46.886143125011586,47.13501991692465,47.18547558400314,47.18547558400314,47.23277779191267,47.50509741692804,right,0.3165164579404518,None,demo,001,2025-03-24_17h14.42.856,Bonnen2015_2afc,2024.2.4,None,2025-03-24 17h14.49.320632 -0400,
0.1045,0.67,0.08,45,45,0,right,0.3961985419737175,None,0,45,45,23,47.55522333399858,,,,,,,,,47.531302374904044,47.55522333399858,47.60962795896921,47.86855266697239,47.96979612496216,48.218843999900855,48.26885641692206,48.26885641692206,48.31636549998075,48.668115166947246,right,0.3961985419737175,None,demo,001,2025-03-24_17h14.42.856,Bonnen2015_2afc,2024.2.4,None,2025-03-24 17h14.49.320632 -0400,
0.2593,0.27,0.005,46,46,0,right,0.23389654199127108,None,0,46,46,5,48.72295037494041,,,,,,,,,48.696121666929685,48.72295037494041,48.77770208392758,49.037077666958794,49.118562374962494,49.36897549999412,49.419560084003024,49.419560084003024,49.482785833999515,49.65526654198766,right,0.23389654199127108,None,demo,001,2025-03-24_17h14.42.856,Bonnen2015_2afc,2024.2.4,None,2025-03-24 17h14.49.320632 -0400,
0.2593,0.27,-0.02,47,47,0,left,0.21612062503118068,None,0,47,47,33,49.70159716694616,,,,,,,,,49.67937412497122,49.70159716694616,49.770297250011936,50.035737499943934,50.119633374968544,50.372113833902404,50.403749999939464,50.403749999939464,50.449492166982964,50.621217333944514,left,0.21612062503118068,None,demo,001,2025-03-24_17h14.42.856,Bonnen2015_2afc,2024.2.4,None,2025-03-24 17h14.49.320632 -0400,
0.2593,0.27,0.08,48,0,1,right,0.3625042919302359,None,1,0,48,21,50.66816491691861,,,,,,,,,50.646022749948315,50.66816491691861,50.736511625000276,50.98630304192193,51.08597008395009,51.335214374936186,51.38598554197233,51.38598554197233,51.41649354191031,51.75153008394409,right,0.3625042919302359,None,demo,001,2025-03-24_17h14.42.856,Bonnen2015_2afc,2024.2.4,None,2025-03-24 17h14.49.320632 -0400,
0.1489,0.47,0.005,49,1,1,right,0.38370245799887925,None,1,1,49,6,51.8036569589749,,,,,,,,,51.77943358395714,51.8036569589749,51.85821658396162,52.11997674999293,52.20345674990676,52.46879045898095,52.50207762490027,52.50207762490027,52.566106874961406,52.88750399998389,right,0.38370245799887925,None,demo,001,2025-03-24_17h14.42.856,Bonnen2015_2afc,2024.2.4,None,2025-03-24 17h14.49.320632 -0400,
0.1489,0.47,0.02,50,2,1,right,0.1687905000289902,None,1,2,50,14,52.93712812499143,,,,,,,,,52.91439954191446,52.93712812499143,52.99119016691111,53.25275241700001,53.35193825000897,53.60211924999021,53.6520847089123,53.6520847089123,53.69942579197232,53.83401920890901,right,0.1687905000289902,None,demo,001,2025-03-24_17h14.42.856,Bonnen2015_2afc,2024.2.4,None,2025-03-24 17h14.49.320632 -0400,
0.2593,0.27,0.005,51,3,1,right,0.19212300004437566,None,1,3,51,5,53.87921541696414,,,,,,,,,53.85751079197507,53.87921541696414,53.94677595898975,54.20412345894147,54.285662499954924,54.535579334013164,54.58523466694169,54.58523466694169,54.63271579192951,54.78482691699173,right,0.19212300004437566,None,demo,001,2025-03-24_17h14.42.856,Bonnen2015_2afc,2024.2.4,None,2025-03-24 17h14.49.320632 -0400,
0.1045,0.67,0.0,52,4,1,right,0.40995975001715124,None,1,4,52,3,54.83333724993281,,,,,,,,,54.81207237497438,54.83333724993281,54.89000729192048,55.15243570890743,55.23544308391865,55.485943874926306,55.53519120893907,55.53519120893907,55.58271520899143,55.95164120895788,right,0.40995975001715124,None,demo,001,2025-03-24_17h14.42.856,Bonnen2015_2afc,2024.2.4,None,2025-03-24 17h14.49.320632 -0400,
0.1045,0.67,-0.01,53,5,1,right,0.5175797080155462,None,1,5,53,31,56.00372224999592,,,,,,,,,55.97968887491152,56.00372224999592,56.058114958927035,56.3185990419006,56.401883249985985,56.652306417003274,56.701784208999015,56.701784208999015,56.7661180839641,57.222736749914475,right,0.5175797080155462,None,demo,001,2025-03-24_17h14.42.856,Bonnen2015_2afc,2024.2.4,None,2025-03-24 17h14.49.320632 -0400,
1.0,0.07,0.04,54,6,1,right,0.31717045803088695,None,1,6,54,16,57.27584737492725,,,,,,,,,57.251590791973285,57.27584737492725,57.3314570839284,57.58881699992344,57.67160875000991,57.9355949589517,57.985573292011395,57.985573292011395,58.03278874990065,58.304085916955955,right,0.31717045803088695,None,demo,001,2025-03-24_17h14.42.856,Bonnen2015_2afc,2024.2.4,None,2025-03-24 17h14.49.320632 -0400,
0.2593,0.27,0.16,55,7,1,right,0.30369816697202623,None,1,7,55,25,58.35147104191128,,,,,,,,,58.32913962495513,58.35147104191128,58.403917749994434,58.66879066696856,58.771973708993755,59.03542924998328,59.06850766693242,59.06850766693242,59.099441792001016,59.38499845890328,right,0.30369816697202623,None,demo,001,2025-03-24_17h14.42.856,Bonnen2015_2afc,2024.2.4,None,2025-03-24 17h14.49.320632 -0400,
0.1045,0.67,0.02,56,8,1,left,0.6390493330545723,None,1,8,56,15,59.434777416987345,,,,,,,,,59.41129600000568,59.434777416987345,59.48947899998166,59.75184704200365,59.835175166954286,60.08506345900241,60.13527183397673,60.13527183397673,60.18271520896815,60.785205208929256,left,0.6390493330545723,None,demo,001,2025-03-24_17h14.42.856,Bonnen2015_2afc,2024.2.4,None,2025-03-24 17h14.49.320632 -0400,
0.1045,0.67,-0.04,57,9,1,left,0.45056533301249146,None,1,9,57,39,60.839290124946274,,,,,,,,,60.815278166905046,60.839290124946274,60.900535749970004,61.15310558397323,61.23540437500924,61.48570791690145,61.53496858396102,61.53496858396102,61.59922229195945,61.98831704200711,left,0.45056533301249146,None,demo,001,2025-03-24_17h14.42.856,Bonnen2015_2afc,2024.2.4,None,2025-03-24 17h14.49.320632 -0400,
1.0,0.07,-0.01,58,10,1,left,0.24219308304600418,None,1,10,58,28,62.04032579192426,,,,,,,,,62.01651091699023,62.04032579192426,62.09499116695952,62.35361770901363,62.4528882089071,62.705232374952175,62.73707812500652,62.73707812500652,62.799136791960336,62.985115958959796,left,0.24219308304600418,None,demo,001,2025-03-24_17h14.42.856,Bonnen2015_2afc,2024.2.4,None,2025-03-24 17h14.49.320632 -0400,
0.1045,0.67,0.16,59,11,1,right,0.3579281660495326,None,1,11,59,27,63.03428045893088,,,,,,,,,63.01197045890149,63.03428045893088,63.091848041978665,63.34132587490603,63.43874449993018,63.70164899993688,63.73547845892608,63.73547845892608,63.782840749947354,64.10162908397615,right,0.3579281660495326,None,demo,001,2025-03-24_17h14.42.856,Bonnen2015_2afc,2024.2.4,None,2025-03-24 17h14.49.320632 -0400,
0.1045,0.67,0.01,60,12,1,left,0.6568819159874693,None,1,12,60,11,64.15219370892737,,,,,,,,,64.12911570898723,64.15219370892737,64.20539137499873,64.45428524992894,64.55238112492952,64.80236945895012,64.85229874996003,64.85229874996003,64.89950704190414,65.51828700001352,left,0.6568819159874693,None,demo,001,2025-03-24_17h14.42.856,Bonnen2015_2afc,2024.2.4,None,2025-03-24 17h14.49.320632 -0400,
0.2593,0.27,-0.08,61,13,1,left,0.27580662502441555,None,1,13,61,41,65.57257333397865,,,,,,,,,65.54807737492956,65.57257333397865,65.62741483398713,65.88652824994642,65.96856245899107,66.21932687493972,66.26902487501502,66.26902487501502,66.33245170896407,66.5514192499686,left,0.27580662502441555,None,demo,001,2025-03-24_17h14.42.856,Bonnen2015_2afc,2024.2.4,None,2025-03-24 17h14.49.320632 -0400,
0.1489,0.47,0.01,62,14,1,right,0.25305445794947445,None,1,14,62,10,66.6004618339939,,,,,,,,,66.57733729190659,66.6004618339939,66.65750641690101,66.91895937500522,67.00221841700841,67.251843541977,67.30185574991629,67.30185574991629,67.3494337919401,67.56826104200445,right,0.25305445794947445,None,demo,001,2025-03-24_17h14.42.856,Bonnen2015_2afc,2024.2.4,None,2025-03-24 17h14.49.320632 -0400,
0.2593,0.27,0.01,63,15,1,right,0.3484575829934329,None,1,15,63,9,67.61824587499723,,,,,,,,,67.59510929195676,67.61824587499723,67.6832829589257,67.94567920896225,68.02590733394027,68.2872225419851,68.32125187490601,68.32125187490601,68.36606174998451,68.67165591695812,right,0.3484575829934329,None,demo,001,2025-03-24_17h14.42.856,Bonnen2015_2afc,2024.2.4,None,2025-03-24 17h14.49.320632 -0400,
0.2593,0.27,0.02,64,16,1,right,0.25535658304579556,None,1,16,64,13,68.72228350001387,,,,,,,,,68.69881633401383,68.72228350001387,68.77713895891793,69.03810524998698,69.13531270890962,69.38582024991047,69.43830141692888,69.43830141692888,69.48267754190601,69.70170141698327,right,0.25535658304579556,None,demo,001,2025-03-24_17h14.42.856,Bonnen2015_2afc,2024.2.4,None,2025-03-24 17h14.49.320632 -0400,
1.0,0.07,0.0,65,17,1,left,1.335908625042066,None,1,17,65,0,69.75231512496248,,,,,,,,,69.72819004196208,69.75231512496248,69.80601462500636,70.06910895893816,70.15207087493036,70.40214845899027,70.45219795894809,70.45219795894809,70.49938508390915,71.80205524992198,left,1.335908625042066,None,demo,001,2025-03-24_17h14.42.856,Bonnen2015_2afc,2024.2.4,None,2025-03-24 17h14.49.320632 -0400,
0.1489,0.47,-0.01,66,18,1,right,0.4770442919107154,None,1,18,66,30,71.85813062498346,,,,,,,,,71.8329872089671,71.85813062498346,71.91378020890988,72.17288587498479,72.25458691699896,72.50309183390345,72.55226812500041,72.55226812500041,72.61610883392859,73.0348841669038,right,0.4770442919107154,None,demo,001,2025-03-24_17h14.42.856,Bonnen2015_2afc,2024.2.4,None,2025-03-24 17h14.49.320632 -0400,
1.0,0.07,0.08,67,19,1,right,0.1777038750005886,None,1,19,67,20,73.08738774992526,,,,,,,,,73.06375283398665,73.08738774992526,73.14481266692746,73.39460445893928,73.49089866690338,73.75165333400946,73.78508320893161,73.78508320893161,73.84942345891614,73.96784462500364,right,0.1777038750005886,None,demo,001,2025-03-24_17h14.42.856,Bonnen2015_2afc,2024.2.4,None,2025-03-24 17h14.49.320632 -0400,
0.1489,0.47,-0.16,68,20,1,left,0.2507118749199435,None,1,20,68,46,74.011761541944,,,,,,,,,73.990407958976,74.011761541944,74.07860079198144,74.33687916700728,74.41858462500386,74.66871499991976,74.71873195900116,74.71873195900116,74.76626416691579,74.9706878339639,left,0.2507118749199435,None,demo,001,2025-03-24_17h14.42.856,Bonnen2015_2afc,2024.2.4,None,2025-03-24 17h14.49.320632 -0400,
0.1489,0.47,-0.04,69,21,1,left,0.49079499999061227,None,1,21,69,38,75.01943120895885,,,,,,,,,74.99640408391133,75.01943120895885,75.07403670891654,75.33660737494938,75.43517837498803,75.68584266700782,75.73544029192999,75.73544029192999,75.76603362499736,76.23486258392222,left,0.49079499999061227,None,demo,001,2025-03-24_17h14.42.856,Bonnen2015_2afc,2024.2.4,None,2025-03-24 17h14.49.320632 -0400,
1.0,0.07,-0.02,70,22,1,left,0.276886333944276,None,1,22,70,32,76.28589008399285,,,,,,,,,76.26278095890302,76.28589008399285,76.35043774999212,76.60945033398457,76.68902541697025,76.95173641690053,76.9854371669935,76.9854371669935,77.0327752919402,77.26797279191669,left,0.276886333944276,None,demo,001,2025-03-24_17h14.42.856,Bonnen2015_2afc,2024.2.4,None,2025-03-24 17h14.49.320632 -0400,
0.1489,0.47,0.0,71,23,1,left,0.32964874990284443,None,1,23,71,2,77.31586766697001,,,,,,,,,77.29354541690554,77.31586766697001,77.37011520890519,77.61915858392604,77.7195391249843,77.96981541696005,78.01857558393385,78.01857558393385,78.06611537490971,78.3514933749102,left,0.32964874990284443,None,demo,001,2025-03-24_17h14.42.856,Bonnen2015_2afc,2024.2.4,None,2025-03-24 17h14.49.320632 -0400,
1.0,0.07,-0.08,72,24,1,left,0.2684941670158878,None,1,24,72,40,78.40118854190223,,,,,,,,,78.37792879191693,78.40118854190223,78.4544967089314,78.7192842089571,78.80270083399955,79.05217124999035,79.10214416694362,79.10214416694362,79.14939883397892,79.3846476249164,left,0.2684941670158878,None,demo,001,2025-03-24_17h14.42.856,Bonnen2015_2afc,2024.2.4,None,2025-03-24 17h14.49.320632 -0400,
0.1045,0.67,0.04,73,25,1,right,0.610031291958876,None,1,25,73,19,79.43447679199744,,,,,,,,,79.41085616697092,79.43447679199744,79.48738341697026,79.7517833749298,79.83570691698696,80.08798512490466,80.13556229195092,80.13556229195092,80.18270787491929,80.75163579196669,right,0.610031291958876,None,demo,001,2025-03-24_17h14.42.856,Bonnen2015_2afc,2024.2.4,None,2025-03-24 17h14.49.320632 -0400,
0.1489,0.47,0.16,74,26,1,right,0.22054258303251117,None,1,26,74,26,80.80895500001498,,,,,,,,,80.78314433398191,80.80895500001498,80.86461020901334,81.12348841701169,81.20596712490078,81.4696307919221,81.50286666699685,81.50286666699685,81.56609733391088,81.73485279199667,right,0.22054258303251117,None,demo,001,2025-03-24_17h14.42.856,Bonnen2015_2afc,2024.2.4,None,2025-03-24 17h14.49.320632 -0400,
0.1489,0.47,0.04,75,27,1,right,0.20111329189967364,None,1,27,75,18,81.78241291700397,,,,,,,,,81.75984724995214,81.78241291700397,81.83775387494825,82.1021373339463,82.18563954194542,82.43543916696217,82.48553333396558,82.48553333396558,82.53275212494191,82.68797587498557,right,0.20111329189967364,None,demo,001,2025-03-24_17h14.42.856,Bonnen2015_2afc,2024.2.4,None,2025-03-24 17h14.49.320632 -0400,
0.1045,0.67,-0.08,76,28,1,left,0.3316515840124339,None,1,28,76,43,82.73422708397266,,,,,,,,,82.71224191691726,82.73422708397266,82.78755333391018,83.05180537491105,83.15287033398636,83.40319033397827,83.43856062495615,83.43856062495615,83.48274804197717,83.77162716700695,left,0.3316515840124339,None,demo,001,2025-03-24_17h14.42.856,Bonnen2015_2afc,2024.2.4,None,2025-03-24 17h14.49.320632 -0400,
0.2593,0.27,-0.02,77,29,1,left,0.34803333308082074,None,1,29,77,33,83.82211779197678,,,,,,,,,83.79852787498385,83.82211779197678,83.87608424993232,84.13559295900632,84.23640524991788,84.4856471249368,84.5382065839367,84.5382065839367,84.58284466690384,84.88759466691408,left,0.34803333308082074,None,demo,001,2025-03-24_17h14.42.856,Bonnen2015_2afc,2024.2.4,None,2025-03-24 17h14.49.320632 -0400,
1.0,0.07,0.16,78,30,1,right,0.21411837509367615,None,1,30,78,24,84.93851204193197,,,,,,,,,84.91446945897769,84.93851204193197,84.9926735839108,85.2520951249171,85.35172366700135,85.602591541945,85.65560391696636,85.65560391696636,85.68273916700855,85.87096933391877,right,0.21411837509367615,None,demo,001,2025-03-24_17h14.42.856,Bonnen2015_2afc,2024.2.4,None,2025-03-24 17h14.49.320632 -0400,
0.1489,0.47,0.08,79,31,1,right,0.17908437503501773,None,1,31,79,22,85.91831687500235,,,,,,,,,85.89597862493247,85.91831687500235,85.9854688339401,86.23716108396184,86.33528825000394,86.5851594589185,86.6354122919729,86.6354122919729,86.66610712499823,86.81822483392898,right,0.17908437503501773,None,demo,001,2025-03-24_17h14.42.856,Bonnen2015_2afc,2024.2.4,None,2025-03-24 17h14.49.320632 -0400,
1.0,0.07,-0.04,80,32,1,left,0.224827624973841,None,1,32,80,36,86.86424491694197,,,,,,,,,86.84213083400391,86.86424491694197,86.93211895891,87.18892379198223,87.26840587495826,87.51837412500754,87.56876845890656,87.56876845890656,87.61601404193789,87.80148124997504,left,0.224827624973841,None,demo,001,2025-03-24_17h14.42.856,Bonnen2015_2afc,2024.2.4,None,2025-03-24 17h14.49.320632 -0400,
0.2593,0.27,-0.04,81,33,1,left,0.23455720802303404,None,1,33,81,37,87.84966174990404,,,,,,,,,87.82682670897339,87.84966174990404,87.90588949993253,88.16868116694968,88.25181820895523,88.50407575001009,88.55187608394772,88.55187608394772,88.59936016693246,88.78774729196448,left,0.23455720802303404,None,demo,001,2025-03-24_17h14.42.856,Bonnen2015_2afc,2024.2.4,None,2025-03-24 17h14.49.320632 -0400,
1.0,0.07,0.02,82,34,1,right,0.2769333330215886,None,1,34,82,12,88.83563691691961,,,,,,,,,88.81304624991026,88.83563691691961,88.88874854194,89.15191470901482,89.25204841699451,89.50194666697644,89.55272849998437,89.55272849998437,89.58270133391488,89.83460204198491,right,0.2769333330215886,None,demo,001,2025-03-24_17h14.42.856,Bonnen2015_2afc,2024.2.4,None,2025-03-24 17h14.49.320632 -0400,
1.0,0.07,0.01,83,35,1,right,0.27041254192590714,None,1,35,83,8,89.88428699993528,,,,,,,,,89.86095291690435,89.88428699993528,89.93722349999007,90.1867558339145,90.28512716700789,90.53504191699903,90.58526508393697,90.58526508393697,90.6326649999246,90.86807049997151,right,0.27041254192590714,None,demo,001,2025-03-24_17h14.42.856,Bonnen2015_2afc,2024.2.4,None,2025-03-24 17h14.49.320632 -0400,
0.1489,0.47,-0.08,84,36,1,left,0.22025833395309746,None,1,36,84,42,90.91663895896636,,,,,,,,,90.89364683395252,90.91663895896636,90.96887741691899,91.21880695899017,91.31909174995963,91.56886416696943,91.61873870890122,91.61873870890122,91.66604183393065,91.8513627499342,left,0.22025833395309746,None,demo,001,2025-03-24_17h14.42.856,Bonnen2015_2afc,2024.2.4,None,2025-03-24 17h14.49.320632 -0400,
0.2593,0.27,0.0,85,37,1,right,0.4019542499445379,None,1,37,85,1,91.89856024994515,,,,,,,,,91.87608395901043,91.89856024994515,91.9534270419972,92.21826862497255,92.3020397919463,92.55192066694144,92.60234337497968,92.60234337497968,92.64930012496188,93.01777745899744,right,0.4019542499445379,None,demo,001,2025-03-24_17h14.42.856,Bonnen2015_2afc,2024.2.4,None,2025-03-24 17h14.49.320632 -0400,
0.1045,0.67,-0.02,86,38,1,left,0.16248258296400309,None,1,38,86,35,93.06846187496558,,,,,,,,,93.04482849990018,93.06846187496558,93.12415933399461,93.38505970896222,93.46841179195326,93.71842383395415,93.76854479196481,93.76854479196481,93.81610395899042,93.9345487919636,left,0.16248258296400309,None,demo,001,2025-03-24_17h14.42.856,Bonnen2015_2afc,2024.2.4,None,2025-03-24 17h14.49.320632 -0400,
0.1045,0.67,0.08,87,39,1,right,0.2288665829692036,None,1,39,87,23,93.9797107919585,,,,,,,,,93.95801958395168,93.9797107919585,94.04729599994607,94.30604499997571,94.3855685419403,94.63797079201322,94.68497220892459,94.68497220892459,94.73270729195792,94.91837716696318,right,0.2288665829692036,None,demo,001,2025-03-24_17h14.42.856,Bonnen2015_2afc,2024.2.4,None,2025-03-24 17h14.49.320632 -0400,
0.2593,0.27,-0.16,88,40,1,left,0.1692164170090109,None,1,40,88,45,94.96680587495212,,,,,,,,,94.94386583392043,94.96680587495212,95.01986174995545,95.26856616698205,95.36848466692027,95.61842662491836,95.66873599996325,95.66873599996325,95.71574245893862,95.85135991696734,left,0.1692164170090109,None,demo,001,2025-03-24_17h14.42.856,Bonnen2015_2afc,2024.2.4,None,2025-03-24 17h14.49.320632 -0400,
0.2593,0.27,0.04,89,41,1,right,0.15554225002415478,None,1,41,89,17,95.89666520897299,,,,,,,,,95.87511658400763,95.89666520897299,95.96423020900693,96.22220462490804,96.3050846249098,96.56862470891792,96.60181687492877,96.60181687492877,96.64916679193266,96.7678281669505,right,0.15554225002415478,None,demo,001,2025-03-24_17h14.42.856,Bonnen2015_2afc,2024.2.4,None,2025-03-24 17h14.49.320632 -0400,
0.1045,0.67,0.005,90,42,1,left,0.3056722499895841,None,1,42,90,7,96.8130197499413,,,,,,,,,96.79124941700138,96.8130197499413,96.8810842919629,97.13930916693062,97.21960624994244,97.47055295901373,97.51844783395063,97.51844783395063,97.56608970894013,97.83506341697648,left,0.3056722499895841,None,demo,001,2025-03-24_17h14.42.856,Bonnen2015_2afc,2024.2.4,None,2025-03-24 17h14.49.320632 -0400,
0.2593,0.27,-0.01,91,43,1,left,0.37154108297545463,None,1,43,91,29,97.88600974995643,,,,,,,,,97.86212824995164,97.88600974995643,97.9403822919121,98.20179566694424,98.28493724996224,98.53855804190971,98.58629674999975,98.58629674999975,98.64939145895187,98.96834941697307,left,0.37154108297545463,None,demo,001,2025-03-24_17h14.42.856,Bonnen2015_2afc,2024.2.4,None,2025-03-24 17h14.49.320632 -0400,
0.1489,0.47,-0.02,92,44,1,left,0.32071058393921703,None,1,44,92,34,99.01984229194932,,,,,,,,,98.99605566693936,99.01984229194932,99.07493587490171,99.33546124992426,99.41837008390576,99.67052183393389,99.71842962491792,99.71842962491792,99.78273379197344,100.05153558391612,left,0.32071058393921703,None,demo,001,2025-03-24_17h14.42.856,Bonnen2015_2afc,2024.2.4,None,2025-03-24 17h14.49.320632 -0400,
0.1045,0.67,-0.16,93,45,1,left,0.277602415997535,None,1,45,93,47,100.10211083397735,,,,,,,,,100.07846291700844,100.10211083397735,100.15602749993559,100.41845287499018,100.50178495899308,100.75322170893196,100.80411849997472,100.80411849997472,100.84940254199319,101.08496195892803,left,0.277602415997535,None,demo,001,2025-03-24_17h14.42.856,Bonnen2015_2afc,2024.2.4,None,2025-03-24 17h14.49.320632 -0400,
1.0,0.07,-0.16,94,46,1,left,0.1928224170114845,None,1,46,94,44,101.13542299997061,,,,,,,,,101.1114962499123,101.13542299997061,101.18930337496568,101.45229391695466,101.53548474994022,101.78511012496892,101.83514558395837,101.83514558395837,101.88266312493943,102.03472995897755,left,0.1928224170114845,None,demo,001,2025-03-24_17h14.42.856,Bonnen2015_2afc,2024.2.4,None,2025-03-24 17h14.49.320632 -0400,
1.0,0.07,0.005,95,47,1,left,0.4195756659610197,None,1,47,95,4,102.0823321249336,,,,,,,,,102.0595959170023,102.0823321249336,102.13795741694048,102.40199479192961,102.48752429196611,102.75158104195725,102.78553824999835,102.78553824999835,102.83268879191019,103.21826041699387,left,0.4195756659610197,None,demo,001,2025-03-24_17h14.42.856,Bonnen2015_2afc,2024.2.4,None,2025-03-24 17h14.49.320632 -0400,
0.2593,0.27,0.04,96,0,2,right,0.1403710829326883,None,2,0,96,17,103.27055441692937,,,,,,,,,103.24685258395039,103.27055441692937,103.33466670894995,103.58800804195926,103.66858779196627,103.91896879195701,103.96923733397853,103.96923733397853,104.0326957089128,104.11783474998083,right,0.1403710829326883,None,demo,001,2025-03-24_17h14.42.856,Bonnen2015_2afc,2024.2.4,None,2025-03-24 17h14.49.320632 -0400,
0.2593,0.27,-0.04,97,1,2,left,0.13661687495186925,None,2,1,97,37,104.16125116695184,,,,,,,,,104.13967045897152,104.16125116695184,104.22888358391356,104.48855145892594,104.56934337492567,104.81917695899028,104.8683955000015,104.8683955000015,104.91599825001322,105.0177188749658,left,0.13661687495186925,None,demo,001,2025-03-24_17h14.42.856,Bonnen2015_2afc,2024.2.4,None,2025-03-24 17h14.49.320632 -0400,
0.1045,0.67,-0.08,98,2,2,left,0.2548505000304431,None,2,2,98,43,105.06095074990299,,,,,,,,,105.03985749999993,105.06095074990299,105.12792016693857,105.38639754196629,105.46856437495444,105.71920520893764,105.76847404194996,105.76847404194996,105.81598829198629,106.03460916690528,left,0.2548505000304431,None,demo,001,2025-03-24_17h14.42.856,Bonnen2015_2afc,2024.2.4,None,2025-03-24 17h14.49.320632 -0400,
0.2593,0.27,0.16,99,3,2,right,0.14306870801374316,None,2,3,99,25,106.08323499991093,,,,,,,,,106.06031554192305,106.08323499991093,106.13773266691715,106.38749191700481,106.48575004190207,106.73615670891013,106.78509920893703,106.78509920893703,106.83271024993155,106.93449208396487,right,0.14306870801374316,None,demo,001,2025-03-24_17h14.42.856,Bonnen2015_2afc,2024.2.4,None,2025-03-24 17h14.49.320632 -0400,
0.2593,0.27,0.005,100,4,2,right,0.3598867499968037,None,2,4,100,5,106.97854462498799,,,,,,,,,106.95699433400296,106.97854462498799,107.04588983394206,107.3047061249381,107.38615208398551,107.65268491697498,107.68585516698658,107.68585516698658,107.73279562499374,108.0513783339411,right,0.3598867499968037,None,demo,001,2025-03-24_17h14.42.856,Bonnen2015_2afc,2024.2.4,None,2025-03-24 17h14.49.320632 -0400,
0.1045,0.67,0.005,101,5,2,left,0.33359275001566857,None,2,5,101,7,108.10192062496208,,,,,,,,,108.07837870891672,108.10192062496208,108.15646116691642,108.41863383399323,108.5024002919672,108.7525062499335,108.80184733390342,108.80184733390342,108.84940991690382,109.13860554201528,left,0.33359275001566857,None,demo,001,2025-03-24_17h14.42.856,Bonnen2015_2afc,2024.2.4,None,2025-03-24 17h14.49.320632 -0400,
1.0,0.07,-0.02,102,6,2,left,0.11259854107629508,None,2,6,102,32,109.19098995893728,,,,,,,,,109.16524941695388,109.19098995893728,109.24567570898216,109.50329791696277,109.60257279197685,109.85297758399975,109.90218866697978,109.90218866697978,109.94942904193886,110.01730466692243,left,0.11259854107629508,None,demo,001,2025-03-24_17h14.42.856,Bonnen2015_2afc,2024.2.4,None,2025-03-24 17h14.49.320632 -0400,
0.1045,0.67,-0.04,103,7,2,right,0.28117037494666874,None,2,7,103,39,110.0580056249164,,,,,,,,,110.03835083392914,110.0580056249164,110.12350062490441,110.38613491691649,110.46984745899681,110.71876999991946,110.76863191695884,110.76863191695884,110.81602887494955,111.05156904191244,right,0.28117037494666874,None,demo,001,2025-03-24_17h14.42.856,Bonnen2015_2afc,2024.2.4,None,2025-03-24 17h14.49.320632 -0400,
0.1045,0.67,-0.01,104,8,2,left,0.22449449996929616,None,2,8,104,31,111.09976179199293,,,,,,,,,111.07706970896106,111.09976179199293,111.15294212498702,111.40284808399156,111.50366941699758,111.76841370901093,111.8026327919215,111.8026327919215,111.84938387491275,112.03444691700861,left,0.22449449996929616,None,demo,001,2025-03-24_17h14.42.856,Bonnen2015_2afc,2024.2.4,None,2025-03-24 17h14.49.320632 -0400,
0.1489,0.47,-0.02,105,9,2,left,0.31056708307005465,None,2,9,105,34,112.08271462493576,,,,,,,,,112.05981324997265,112.08271462493576,112.13630195893347,112.3850398339564,112.48601604194846,112.73512287496123,112.78556049999315,112.78556049999315,112.83267845900264,113.10114920896012,left,0.31056708307005465,None,demo,001,2025-03-24_17h14.42.856,Bonnen2015_2afc,2024.2.4,None,2025-03-24 17h14.49.320632 -0400,
0.2593,0.27,0.08,106,10,2,right,0.16969700006302446,None,2,10,106,21,113.15117133397143,,,,,,,,,113.12776004197076,113.15117133397143,113.20405833399855,113.46960754191969,113.55237687495537,113.8021510419203,113.85197345900815,113.85197345900815,113.8993627919117,114.03440720890649,right,0.16969700006302446,None,demo,001,2025-03-24_17h14.42.856,Bonnen2015_2afc,2024.2.4,None,2025-03-24 17h14.49.320632 -0400,
0.2593,0.27,-0.16,107,11,2,left,0.20006666705012321,None,2,11,107,45,114.08104362490121,,,,,,,,,114.05880654195789,114.08104362490121,114.14901670895051,114.40705429192167,114.48724624991883,114.75364858401008,114.78809054195881,114.78809054195881,114.83274066692684,115.00132149993442,left,0.20006666705012321,None,demo,001,2025-03-24_17h14.42.856,Bonnen2015_2afc,2024.2.4,None,2025-03-24 17h14.49.320632 -0400,
0.1489,0.47,0.0,108,12,2,left,0.5136330000823364,None,2,12,108,2,115.04919608391356,,,,,,,,,115.02643962495495,115.04919608391356,115.10185204190202,115.35424295894336,115.45231008401606,115.70205008401535,115.75169370893855,115.75169370893855,115.79947345890105,116.26819041697308,left,0.5136330000823364,None,demo,001,2025-03-24_17h14.42.856,Bonnen2015_2afc,2024.2.4,None,2025-03-24 17h14.49.320632 -0400,
0.2593,0.27,0.01,109,13,2,right,0.1306247500469908,None,2,13,109,9,116.32263558392879,,,,,,,,,116.29804516700096,116.32263558392879,116.37745066697244,116.63576979190111,116.71877124998719,116.96837124996819,117.02188112493604,117.02188112493604,117.08275208401028,117.15363083395641,right,0.1306247500469908,None,demo,001,2025-03-24_17h14.42.856,Bonnen2015_2afc,2024.2.4,None,2025-03-24 17h14.49.320632 -0400,
1.0,0.07,0.16,110,14,2,right,0.20485874998848885,None,2,14,110,24,117.19476749992464,,,,,,,,,117.17470662493724,117.19476749992464,117.26003033400048,117.51990700000897,117.60464579192922,117.86850845895242,117.91839329199865,117.91839329199865,117.94936362490989,118.13441687496379,right,0.20485874998848885,None,demo,001,2025-03-24_17h14.42.856,Bonnen2015_2afc,2024.2.4,None,2025-03-24 17h14.49.320632 -0400,
0.1489,0.47,-0.08,111,15,2,left,0.1944970419863239,None,2,15,111,42,118.18235695897602,,,,,,,,,118.1595949169714,118.18235695897602,118.23854983400088,118.50185574998613,118.58522862498648,118.8352637499338,118.88643137493636,118.88643137493636,118.93267050001305,119.08453779190313,left,0.1944970419863239,None,demo,001,2025-03-24_17h14.42.856,Bonnen2015_2afc,2024.2.4,None,2025-03-24 17h14.49.320632 -0400,
0.1045,0.67,0.08,112,16,2,right,0.2016960410401225,None,2,16,112,23,119.13149004196748,,,,,,,,,119.10911337495781,119.13149004196748,119.1870571669424,119.45193641691003,119.53512991697062,119.78644583397545,119.8371464589145,119.8371464589145,119.88282445899677,120.05128283391241,right,0.2016960410401225,None,demo,001,2025-03-24_17h14.42.856,Bonnen2015_2afc,2024.2.4,None,2025-03-24 17h14.49.320632 -0400,
0.1489,0.47,-0.01,113,17,2,left,0.3630350410239771,None,2,17,113,30,120.09837049990892,,,,,,,,,120.07604720897507,120.09837049990892,120.15173662500456,120.40360079193488,120.50320533395279,120.76826441695448,120.8020070840139,120.8020070840139,120.84928662492894,121.16817391698714,left,0.3630350410239771,None,demo,001,2025-03-24_17h14.42.856,Bonnen2015_2afc,2024.2.4,None,2025-03-24 17h14.49.320632 -0400,
0.1045,0.67,0.01,114,18,2,right,0.43941029207780957,None,2,18,114,11,121.21867191698402,,,,,,,,,121.19522808399051,121.21867191698402,121.27302550000604,121.52201270894147,121.6184682919411,121.86856020893902,121.91836304194294,121.91836304194294,121.96602916694246,122.36852483393159,right,0.43941029207780957,None,demo,001,2025-03-24_17h14.42.856,Bonnen2015_2afc,2024.2.4,None,2025-03-24 17h14.49.320632 -0400,
1.0,0.07,-0.08,115,19,2,left,0.21758562501054257,None,2,19,115,40,122.42105408397038,,,,,,,,,122.39738624996971,122.42105408397038,122.47540899994783,122.73531691695098,122.8183075839188,123.06862179201562,123.11832887493074,123.11832887493074,123.18273354193661,123.33767670893576,left,0.21758562501054257,None,demo,001,2025-03-24_17h14.42.856,Bonnen2015_2afc,2024.2.4,None,2025-03-24 17h14.49.320632 -0400,
0.1489,0.47,-0.16,116,20,2,left,0.1668737919535488,None,2,20,116,46,123.38388912496157,,,,,,,,,123.36161137500312,123.38388912496157,123.45185745891649,123.70176091697067,123.78752787492704,124.05192133400124,124.10191129194573,124.10191129194573,124.13265679194592,124.27119266695809,left,0.1668737919535488,None,demo,001,2025-03-24_17h14.42.856,Bonnen2015_2afc,2024.2.4,None,2025-03-24 17h14.49.320632 -0400,
0.2593,0.27,0.0,117,21,2,right,0.37733470904640853,None,2,21,117,1,124.31645183393266,,,,,,,,,124.29456983390264,124.31645183393266,124.38522024999838,124.635807499988,124.73510649998207,124.98620366700925,125.03503970894963,125.03503970894963,125.06594624998979,125.41813887492754,right,0.37733470904640853,None,demo,001,2025-03-24_17h14.42.856,Bonnen2015_2afc,2024.2.4,None,2025-03-24 17h14.49.320632 -0400,
0.1489,0.47,0.08,118,22,2,right,0.301190625061281,None,2,22,118,22,125.46962429198902,,,,,,,,,125.44534045900218,125.46962429198902,125.52316787501331,125.78592649998609,125.86905862495769,126.11938066699076,126.16896012495272,126.16896012495272,126.23272095900029,126.47148837498389,right,0.301190625061281,None,demo,001,2025-03-24_17h14.42.856,Bonnen2015_2afc,2024.2.4,None,2025-03-24 17h14.49.320632 -0400,
1.0,0.07,0.04,119,23,2,right,0.2052389590535313,None,2,23,119,16,126.5201317089377,,,,,,,,,126.49723549990449,126.5201317089377,126.57518504199106,126.83558066701517,126.93627854192164,127.18634016695432,127.235094249947,127.235094249947,127.26606258400716,127.45146104192827,right,0.2052389590535313,None,demo,001,2025-03-24_17h14.42.856,Bonnen2015_2afc,2024.2.4,None,2025-03-24 17h14.49.320632 -0400,
0.1489,0.47,0.02,120,24,2,right,0.18404091603588313,None,2,24,120,14,127.4998256249819,,,,,,,,,127.47672729194164,127.4998256249819,127.55440045893192,127.8024637500057,127.90256320894696,128.1524448749842,128.20225062500685,128.20225062500685,128.24939841695596,128.3876113339793,right,0.18404091603588313,None,demo,001,2025-03-24_17h14.42.856,Bonnen2015_2afc,2024.2.4,None,2025-03-24 17h14.49.320632 -0400,
0.1489,0.47,0.04,121,25,2,right,0.20537800004240125,None,2,25,121,18,128.43306391697843,,,,,,,,,128.41122829192318,128.43306391697843,128.487737791962,128.75341324997135,128.85178033390548,129.10160395898856,129.13597591698635,129.13597591698635,129.18269087490626,129.34362804191187,right,0.20537800004240125,None,demo,001,2025-03-24_17h14.42.856,Bonnen2015_2afc,2024.2.4,None,2025-03-24 17h14.49.320632 -0400,
0.1045,0.67,0.02,122,26,2,right,0.35402062500361353,None,2,26,122,15,129.38858633395284,,,,,,,,,129.36671474995092,129.38858633395284,129.45713712496217,129.71991529199295,129.80291445890907,130.05234829196706,130.10167004191317,130.10167004191317,130.14936679194216,130.45969912491273,right,0.35402062500361353,None,demo,001,2025-03-24_17h14.42.856,Bonnen2015_2afc,2024.2.4,None,2025-03-24 17h14.49.320632 -0400,
1.0,0.07,-0.04,123,27,2,left,0.0964621250750497,None,2,27,123,36,130.5094524169108,,,,,,,,,130.48608104197774,130.5094524169108,130.56392258394044,130.82178224995732,130.91848079196643,131.16910941700917,131.21849320898764,131.21849320898764,131.2657028749818,131.31716908398084,left,0.0964621250750497,None,demo,001,2025-03-24_17h14.42.856,Bonnen2015_2afc,2024.2.4,None,2025-03-24 17h14.49.320632 -0400,
0.1489,0.47,0.16,124,28,2,right,0.22530945797916502,None,2,28,124,26,131.35436220897827,,,,,,,,,131.33656341698952,131.35436220897827,131.4196972089121,131.66872804192826,131.76826904190239,132.0183721249923,132.06833287491463,132.06833287491463,132.11598424997646,132.30165304196998,right,0.22530945797916502,None,demo,001,2025-03-24_17h14.42.856,Bonnen2015_2afc,2024.2.4,None,2025-03-24 17h14.49.320632 -0400,
0.2593,0.27,0.02,125,29,2,right,0.21776629192754626,None,2,29,125,13,132.35023724997882,,,,,,,,,132.3272939589806,132.35023724997882,132.40352837496903,132.66881608392578,132.75337437493727,133.01850620890036,133.0518976249732,133.0518976249732,133.09937566693407,133.2708592499839,right,0.21776629192754626,None,demo,001,2025-03-24_17h14.42.856,Bonnen2015_2afc,2024.2.4,None,2025-03-24 17h14.49.320632 -0400,
1.0,0.07,-0.16,126,30,2,left,0.2200642090756446,None,2,30,126,44,133.31800974998623,,,,,,,,,133.29551233397797,133.31800974998623,133.38533991691656,133.63545287493616,133.73509699990973,133.98586041701492,134.03529124998022,134.03529124998022,134.06602674990427,134.26813116692938,left,0.2200642090756446,None,demo,001,2025-03-24_17h14.42.856,Bonnen2015_2afc,2024.2.4,None,2025-03-24 17h14.49.320632 -0400,
0.1045,0.67,0.16,127,31,2,right,0.21729983401019126,None,2,31,127,27,134.31679033394903,,,,,,,,,134.2937961249845,134.31679033394903,134.37104870891199,134.63494237500709,134.71821524994448,134.96955733397044,135.01866104197688,135.01866104197688,135.066156417015,135.23730816692114,right,0.21729983401019126,None,demo,001,2025-03-24_17h14.42.856,Bonnen2015_2afc,2024.2.4,None,2025-03-24 17h14.49.320632 -0400,
1.0,0.07,-0.01,128,32,2,left,0.17064033390488476,None,2,32,128,28,135.28482537495438,,,,,,,,,135.2622144999914,135.28482537495438,135.33792595891282,135.60152470890898,135.70158991694916,135.95216358394828,136.00172149995342,136.00172149995342,136.0326811670093,136.18454679194838,left,0.17064033390488476,None,demo,001,2025-03-24_17h14.42.856,Bonnen2015_2afc,2024.2.4,None,2025-03-24 17h14.49.320632 -0400,
0.2593,0.27,-0.02,129,33,2,left,0.25587458291556686,None,2,33,129,33,136.23271962499712,,,,,,,,,136.20951291697565,136.23271962499712,136.28612420894206,136.5525846669916,136.63817862491123,136.90227466693614,136.93498949997593,136.93498949997593,136.98272954195272,137.20136812492274,left,0.25587458291556686,None,demo,001,2025-03-24_17h14.42.856,Bonnen2015_2afc,2024.2.4,None,2025-03-24 17h14.49.320632 -0400,
0.1045,0.67,-0.02,130,34,2,right,0.27212808304466307,None,2,34,130,35,137.2481494169915,,,,,,,,,137.22583954199217,137.2481494169915,137.30280029191636,137.56826324993744,137.65182608400937,137.90193716692738,137.95179362490308,137.95179362490308,137.9994341249112,138.23477358394302,right,0.27212808304466307,None,demo,001,2025-03-24_17h14.42.856,Bonnen2015_2afc,2024.2.4,None,2025-03-24 17h14.49.320632 -0400,
0.1489,0.47,-0.04,131,35,2,left,0.22101816697977483,None,2,35,131,38,138.28269687492866,,,,,,,,,138.26007645891514,138.28269687492866,138.3409818749642,138.60185037495103,138.68512637494132,138.93529420893174,138.98525920894463,138.98525920894463,139.0326954999473,139.2178571249824,left,0.22101816697977483,None,demo,001,2025-03-24_17h14.42.856,Bonnen2015_2afc,2024.2.4,None,2025-03-24 17h14.49.320632 -0400,
1.0,0.07,0.01,132,36,2,right,0.04973700002301484,None,2,36,132,8,139.2660373749677,,,,,,,,,139.24308866693173,139.2660373749677,139.31909395894036,139.568794916966,139.66878379194532,139.91825404192787,139.9712847499177,139.9712847499177,140.01599833392538,140.03336991695687,right,0.04973700002301484,None,demo,001,2025-03-24_17h14.42.856,Bonnen2015_2afc,2024.2.4,None,2025-03-24 17h14.49.320632 -0400,
1.0,0.07,0.0,133,37,2,left,0.41105049999896437,None,2,37,133,0,140.06783083395567,,,,,,,,,140.05091787490528,140.06783083395567,140.13526737492066,140.3853448339505,140.4851317499997,140.73517499992158,140.785390874953,140.785390874953,140.8161037499085,141.20150783390272,left,0.41105049999896437,None,demo,001,2025-03-24_17h14.42.856,Bonnen2015_2afc,2024.2.4,None,2025-03-24 17h14.49.320632 -0400,
1.0,0.07,0.08,134,38,2,right,0.06909900007303804,None,2,38,134,20,141.25351079192478,,,,,,,,,141.22969491698314,141.25351079192478,141.31717162497807,141.5692945419578,141.65500454197172,141.91926316695753,141.95230991696008,141.95230991696008,142.01600025000516,142.0333324589301,right,0.06909900007303804,None,demo,001,2025-03-24_17h14.42.856,Bonnen2015_2afc,2024.2.4,None,2025-03-24 17h14.49.320632 -0400,
0.1045,0.67,0.04,135,39,2,right,0.3599202500190586,None,2,39,135,19,142.0683837919496,,,,,,,,,142.05099520890508,142.0683837919496,142.13509591692127,142.38509749993682,142.48502512497362,142.73583916691132,142.7883347090101,142.7883347090101,142.81606945896056,143.15128779190127,right,0.3599202500190586,None,demo,001,2025-03-24_17h14.42.856,Bonnen2015_2afc,2024.2.4,None,2025-03-24 17h14.49.320632 -0400,
1.0,0.07,0.02,136,40,2,right,0.12439487501978874,None,2,40,136,12,143.2016236250056,,,,,,,,,143.17786933400203,143.2016236250056,143.25581720890477,143.51835066697095,143.6024048749823,143.8523954169359,143.90542037494015,143.90542037494015,143.94930666696746,144.0342330839485,right,0.12439487501978874,None,demo,001,2025-03-24_17h14.42.856,Bonnen2015_2afc,2024.2.4,None,2025-03-24 17h14.49.320632 -0400,
0.2593,0.27,-0.08,137,41,2,left,0.19314495904836804,None,2,41,137,41,144.07738220901228,,,,,,,,,144.0562241669977,144.07738220901228,144.14409433398396,144.40355958393775,144.48757366696373,144.75168908399064,144.78491670894437,144.78491670894437,144.83284541696776,144.98475058400072,left,0.19314495904836804,None,demo,001,2025-03-24_17h14.42.856,Bonnen2015_2afc,2024.2.4,None,2025-03-24 17h14.49.320632 -0400,
0.1489,0.47,0.005,138,42,2,right,0.6604687499348074,None,2,42,138,6,145.03210791700985,,,,,,,,,145.009309459012,145.03210791700985,145.08621791691985,145.33583137497772,145.43629024992697,145.68639358400833,145.73612658400089,145.73612658400089,145.782610583934,146.40171924990136,right,0.6604687499348074,None,demo,001,2025-03-24_17h14.42.856,Bonnen2015_2afc,2024.2.4,None,2025-03-24 17h14.49.320632 -0400,
0.1045,0.67,-0.16,139,43,2,left,0.1862706249812618,None,2,43,139,47,146.45718520891387,,,,,,,,,146.43241349991877,146.45718520891387,146.51195541699417,146.77144391695037,146.85261249996256,147.10173908399884,147.15180916700047,147.15180916700047,147.2160069589736,147.35122833400965,left,0.1862706249812618,None,demo,001,2025-03-24_17h14.42.856,Bonnen2015_2afc,2024.2.4,None,2025-03-24 17h14.49.320632 -0400,
0.1489,0.47,0.01,140,44,2,right,0.17945870908442885,None,2,44,140,10,147.39754754200112,,,,,,,,,147.37579966697376,147.39754754200112,147.46572904195637,147.72359441698063,147.8038879999658,148.06950749992393,148.10178270901088,148.10178270901088,148.14934445894323,148.28468758391682,right,0.17945870908442885,None,demo,001,2025-03-24_17h14.42.856,Bonnen2015_2afc,2024.2.4,None,2025-03-24 17h14.49.320632 -0400,
0.2593,0.27,-0.01,141,45,2,left,0.3005284999962896,None,2,45,141,29,148.3308483340079,,,,,,,,,148.30854412494227,148.3308483340079,148.3987738339929,148.65511487494223,148.73636687500402,148.987384499982,149.0359366670018,149.0359366670018,149.0825940419454,149.33792466693558,left,0.3005284999962896,None,demo,001,2025-03-24_17h14.42.856,Bonnen2015_2afc,2024.2.4,None,2025-03-24 17h14.49.320632 -0400,
1.0,0.07,0.005,142,46,2,right,0.17044458398595452,None,2,46,142,4,149.3872176669538,,,,,,,,,149.36433891695924,149.3872176669538,149.4420986669138,149.7016238339711,149.80269408400636,150.0551068339264,150.0871302089654,150.0871302089654,150.1492834589444,150.26789625000674,right,0.17044458398595452,None,demo,001,2025-03-24_17h14.42.856,Bonnen2015_2afc,2024.2.4,None,2025-03-24 17h14.49.320632 -0400,
0.1045,0.67,0.0,143,47,2,right,0.4390114170964807,None,2,47,143,3,150.31225537497085,,,,,,,,,150.29099545895588,150.31225537497085,150.3793824169552,150.63820183393545,150.71851866692305,150.96880908391904,151.0183188749943,151.0183188749943,151.0659900419414,151.46820708399173,right,0.4390114170964807,None,demo,001,2025-03-24_17h14.42.856,Bonnen2015_2afc,2024.2.4,None,2025-03-24 17h14.49.320632 -0400,
