blobHeight,blobWidth,offset,thisN,thisTrialN,thisRepN,key_resp.keys,key_resp.rt,key_resp.duration,trials.thisRepN,trials.thisTrialN,trials.thisN,trials.thisIndex,thisRow.t,notes,Wait.started,start_trial_text.started,start_key_resp.started,Wait.stopped,start_key_resp.keys,start_key_resp.rt,start_key_resp.duration,trial.started,noise.started,blob_1.started,blob_1.stopped,blob_2.started,blob_2.stopped,noise_2.started,key_resp.started,noise.stopped,trial.stopped,trials.key_resp.keys,trials.key_resp.rt,trials.key_resp.duration,participant,session,date,expName,psychopyVersion,frameRate,expStart,
,,,,,,,,,,,,,,,0.009375125053338706,0.02076441701501608,0.02076441701501608,1.3413572079734877,space,1.291118791908957,None,,,,,,,,,,,,,,demo,001,2025-03-24_16h58.34.387,Bonnen2015_2afc,2024.2.4,None,2025-03-24 16h58.40.675932 -0400,
0.2593,0.27,-0.01,0,0,0,left,0.384016124997288,None,0,0,0,29,1.424512792029418,,,,,,,,,1.399549417081289,1.424512792029418,1.4439199169864878,1.707587750046514,1.8071090000448748,2.0564729580655694,2.0903647920349613,2.0903647920349613,2.186730375047773,2.510093874996528,left,0.384016124997288,None,demo,001,2025-03-24_16h58.34.387,Bonnen2015_2afc,2024.2.4,None,2025-03-24 16h58.40.675932 -0400,
1.0,0.07,0.01,1,1,0,right,0.11172450007870793,None,0,1,1,8,2.547347499988973,,,,,,,,,2.5290033330675215,2.547347499988973,2.6149817920522764,2.8639261670177802,2.9607828330481425,3.222548458026722,3.274416416999884,3.274416416999884,3.3033210419816896,3.3881407079752535,right,0.11172450007870793,None,demo,001,2025-03-24_16h58.34.387,Bonnen2015_2afc,2024.2.4,None,2025-03-24 16h58.40.675932 -0400,
0.1045,0.67,0.02,2,2,0,right,0.3583554159849882,None,0,2,2,15,3.4290315830148757,,,,,,,,,3.4093847919721156,3.4290315830148757,3.4953890830511227,3.7569842080119997,3.840652292012237,4.09046095807571,4.139271249994636,4.139271249994636,4.186616750084795,4.505360292037949,right,0.3583554159849882,None,demo,001,2025-03-24_16h58.34.387,Bonnen2015_2afc,2024.2.4,None,2025-03-24 16h58.40.675932 -0400,
0.2593,0.27,0.02,3,3,0,right,0.14243783301208168,None,0,3,3,13,4.563409375026822,,,,,,,,,4.5324650830589235,4.563409375026822,4.6154024170245975,4.876135417027399,4.957254333072342,5.223111749975942,5.255856625037268,5.255856625037268,5.319929833058268,5.405210917000659,right,0.14243783301208168,None,demo,001,2025-03-24_16h58.34.387,Bonnen2015_2afc,2024.2.4,None,2025-03-24 16h58.40.675932 -0400,
0.1489,0.47,-0.08,4,4,0,left,0.2154970420524478,None,0,4,4,42,5.448854292044416,,,,,,,,,5.428062750026584,5.448854292044416,5.516201458056457,5.7764966250397265,5.857717500068247,6.109367542085238,6.15770787501242,6.15770787501242,6.203431167057715,6.375662958016619,left,0.2154970420524478,None,demo,001,2025-03-24_16h58.34.387,Bonnen2015_2afc,2024.2.4,None,2025-03-24 16h58.40.675932 -0400,
0.2593,0.27,-0.08,5,5,0,left,0.21459750004578382,None,0,5,5,41,6.422573333024047,,,,,,,,,6.400459749973379,6.422573333024047,6.475894375005737,6.740322625031695,6.840116458013654,7.0940705420216545,7.126588667044416,7.126588667044416,7.170067375060171,7.354600250022486,left,0.21459750004578382,None,demo,001,2025-03-24_16h58.34.387,Bonnen2015_2afc,2024.2.4,None,2025-03-24 16h58.40.675932 -0400,
0.2593,0.27,0.0,6,6,0,right,0.11669479100964963,None,0,6,6,1,7.411228792043403,,,,,,,,,7.390119292074814,7.411228792043403,7.467399958055466,7.729251750046387,7.811560833011754,8.073234000010416,8.107036791974679,8.107036791974679,8.170041457982734,8.238130792044103,right,0.11669479100964963,None,demo,001,2025-03-24_16h58.34.387,Bonnen2015_2afc,2024.2.4,None,2025-03-24 16h58.40.675932 -0400,
0.2593,0.27,-0.02,7,7,0,left,0.1774696670472622,None,0,7,7,33,8.287590999971144,,,,,,,,,8.261719541973434,8.287590999971144,8.35274866700638,8.607540957978927,8.69079733302351,8.942094875033945,8.989752958063036,8.989752958063036,9.036727458005771,9.171834417036735,left,0.1774696670472622,None,demo,001,2025-03-24_16h58.34.387,Bonnen2015_2afc,2024.2.4,None,2025-03-24 16h58.40.675932 -0400,
1.0,0.07,0.005,8,8,0,right,0.3053922919789329,None,0,8,8,4,9.217413041973487,,,,,,,,,9.195849750074558,9.217413041973487,9.27288312499877,9.52460012503434,9.623689500032924,9.87377595808357,9.92313725000713,9.92313725000713,9.970115875010379,10.23849712498486,right,0.3053922919789329,None,demo,001,2025-03-24_16h58.34.387,Bonnen2015_2afc,2024.2.4,None,2025-03-24 16h58.40.675932 -0400,
0.2593,0.27,0.16,9,9,0,right,0.12286608293652534,None,0,9,9,25,10.288833042024635,,,,,,,,,10.26545054197777,10.288833042024635,10.343130707973614,10.593715292052366,10.691015082993545,10.955979333026335,10.989191500004381,10.989191500004381,11.036733041983098,11.121500457986258,right,0.12286608293652534,None,demo,001,2025-03-24_16h58.34.387,Bonnen2015_2afc,2024.2.4,None,2025-03-24 16h58.40.675932 -0400,
1.0,0.07,-0.04,10,10,0,left,0.21379925007931888,None,0,10,10,36,11.164626499987207,,,,,,,,,11.143711916985922,11.164626499987207,11.231466708006337,11.491982333012857,11.573870917083696,11.823787749977782,11.87304475007113,11.87304475007113,11.920011750073172,12.08853158308193,left,0.21379925007931888,None,demo,001,2025-03-24_16h58.34.387,Bonnen2015_2afc,2024.2.4,None,2025-03-24 16h58.40.675932 -0400,
0.1045,0.67,0.04,11,11,0,right,0.22007529204711318,None,0,11,11,19,12.136958583025262,,,,,,,,,12.11416304204613,12.136958583025262,12.189397374982946,12.439711500075646,12.539960250025615,12.789625708013773,12.841809874982573,12.841809874982573,12.886757167056203,13.071904957992956,right,0.22007529204711318,None,demo,001,2025-03-24_16h58.34.387,Bonnen2015_2afc,2024.2.4,None,2025-03-24 16h58.40.675932 -0400,
1.0,0.07,-0.02,12,12,0,left,0.2051188750192523,None,0,12,12,32,13.120384500012733,,,,,,,,,13.097121583065018,13.120384500012733,13.174363875063136,13.42426175007131,13.523973542032763,13.773496208013967,13.823330917046405,13.823330917046405,13.87007954204455,14.03851574996952,left,0.2051188750192523,None,demo,001,2025-03-24_16h58.34.387,Bonnen2015_2afc,2024.2.4,None,2025-03-24 16h58.40.675932 -0400,
1.0,0.07,0.04,13,13,0,right,0.07778683304786682,None,0,13,13,16,14.08911733306013,,,,,,,,,14.066955292015336,14.08911733306013,14.142868582974188,14.407065292005427,14.492173167061992,14.75699041702319,14.789994416991249,14.789994416991249,14.836757041979581,14.870952000026591,right,0.07778683304786682,None,demo,001,2025-03-24_16h58.34.387,Bonnen2015_2afc,2024.2.4,None,2025-03-24 16h58.40.675932 -0400,
0.1045,0.67,-0.02,14,14,0,left,0.27528366702608764,None,0,14,14,35,14.907761250040494,,,,,,,,,14.889903542003594,14.907761250040494,14.974312750040554,15.222488667001016,15.322720292024314,15.572794917039573,15.625689374981448,15.625689374981448,15.653461750014685,15.90546716703102,left,0.27528366702608764,None,demo,001,2025-03-24_16h58.34.387,Bonnen2015_2afc,2024.2.4,None,2025-03-24 16h58.40.675932 -0400,
1.0,0.07,-0.08,15,15,0,left,0.18463941698428243,None,0,15,15,40,15.956691832980141,,,,,,,,,15.933006042032503,15.956691832980141,16.010135458083823,16.258680541999638,16.35669283301104,16.60614087502472,16.6559438330587,16.6559438330587,16.70339912502095,16.85512316704262,left,0.18463941698428243,None,demo,001,2025-03-24_16h58.34.387,Bonnen2015_2afc,2024.2.4,None,2025-03-24 16h58.40.675932 -0400,
0.1489,0.47,0.04,16,16,0,right,0.14197129209060222,None,0,16,16,18,16.90158570802305,,,,,,,,,16.87937395798508,16.90158570802305,16.96927066706121,17.23049866699148,17.310973957995884,17.57276750006713,17.605673582991585,17.605673582991585,17.653244458022527,17.755155333084986,right,0.14197129209060222,None,demo,001,2025-03-24_16h58.34.387,Bonnen2015_2afc,2024.2.4,None,2025-03-24 16h58.40.675932 -0400,
0.1489,0.47,-0.16,17,17,0,left,0.20652704208623618,None,0,17,17,46,17.799425416975282,,,,,,,,,17.778160833055153,17.799425416975282,17.867107000085525,18.128982207970694,18.21014175005257,18.474129542009905,18.506523124990053,18.506523124990053,18.552993958001025,18.722193250083365,left,0.20652704208623618,None,demo,001,2025-03-24_16h58.34.387,Bonnen2015_2afc,2024.2.4,None,2025-03-24 16h58.40.675932 -0400,
0.2593,0.27,0.08,18,18,0,right,0.09981945902109146,None,0,18,18,21,18.77043033298105,,,,,,,,,18.747536292066798,18.77043033298105,18.825116125051863,19.07361420802772,19.172977957990952,19.423138207988814,19.472946292022243,19.472946292022243,19.519935042015277,19.57376383303199,right,0.09981945902109146,None,demo,001,2025-03-24_16h58.34.387,Bonnen2015_2afc,2024.2.4,None,2025-03-24 16h58.40.675932 -0400,
0.1045,0.67,0.08,19,19,0,right,0.34547783294692636,None,0,19,19,23,19.610531833022833,,,,,,,,,19.592916666995734,19.610531833022833,19.6759224999696,19.939626083010808,20.039550916990265,20.290550917037763,20.322615124983713,20.322615124983713,20.36992666707374,20.672032125061378,right,0.34547783294692636,None,demo,001,2025-03-24_16h58.34.387,Bonnen2015_2afc,2024.2.4,None,2025-03-24 16h58.40.675932 -0400,
0.1045,0.67,0.16,20,20,0,right,0.24426733306609094,None,0,20,20,27,20.722803625045344,,,,,,,,,20.699326042085886,20.722803625045344,20.77713812503498,21.039430791977793,21.122467792010866,21.372780499979854,21.422637375071645,21.422637375071645,21.470065957983024,21.671855292050168,right,0.24426733306609094,None,demo,001,2025-03-24_16h58.34.387,Bonnen2015_2afc,2024.2.4,None,2025-03-24 16h58.40.675932 -0400,
0.1045,0.67,0.005,21,21,0,left,0.7446875419700518,None,0,21,21,7,21.72077691706363,,,,,,,,,21.697874375036918,21.72077691706363,21.774983791983686,22.039734875084832,22.122776167001575,22.37543029198423,22.42401258298196,22.42401258298196,22.470071875024587,23.172373875044286,left,0.7446875419700518,None,demo,001,2025-03-24_16h58.34.387,Bonnen2015_2afc,2024.2.4,None,2025-03-24 16h58.40.675932 -0400,
0.2593,0.27,0.01,22,22,0,right,0.11668025003746152,None,0,22,22,9,23.232682417030446,,,,,,,,,23.204430958023295,23.232682417030446,23.287849833024666,23.53938529198058,23.62278866698034,23.87308104208205,23.922770207980648,23.922770207980648,23.986627666978166,24.041405708063394,right,0.11668025003746152,None,demo,001,2025-03-24_16h58.34.387,Bonnen2015_2afc,2024.2.4,None,2025-03-24 16h58.40.675932 -0400,
0.2593,0.27,0.04,23,23,0,right,0.18495533301029354,None,0,23,23,17,24.07816500007175,,,,,,,,,24.06070312508382,24.07816500007175,24.143161875079386,24.40611495799385,24.505514250020497,24.75747658300679,24.806636875029653,24.806636875029653,24.836777792079374,25.005262874998152,right,0.18495533301029354,None,demo,001,2025-03-24_16h58.34.387,Bonnen2015_2afc,2024.2.4,None,2025-03-24 16h58.40.675932 -0400,
1.0,0.07,-0.01,24,24,0,left,0.2730818329146132,None,0,24,24,28,25.052986375056207,,,,,,,,,25.03049837506842,25.052986375056207,25.10772349999752,25.372711166972294,25.45596170797944,25.7089065000182,25.757715333020315,25.757715333020315,25.80332016700413,26.03873124998063,left,0.2730818329146132,None,demo,001,2025-03-24_16h58.34.387,Bonnen2015_2afc,2024.2.4,None,2025-03-24 16h58.40.675932 -0400,
0.1489,0.47,0.08,25,25,0,right,0.17895320802927017,None,0,25,25,22,26.08851562498603,,,,,,,,,26.065293582971208,26.08851562498603,26.141534707974643,26.38967633305583,26.489373167045414,26.739172667032108,26.789546207990497,26.789546207990497,26.836591125000268,26.972066458081827,right,0.17895320802927017,None,demo,001,2025-03-24_16h58.34.387,Bonnen2015_2afc,2024.2.4,None,2025-03-24 16h58.40.675932 -0400,
0.2593,0.27,-0.16,26,26,0,left,0.26714225008618087,None,0,26,26,45,27.02001979202032,,,,,,,,,26.996770082972944,27.02001979202032,27.073911958024837,27.339544792077504,27.42436816706322,27.68913325003814,27.722319000051357,27.722319000051357,27.77007979201153,27.99157341697719,left,0.26714225008618087,None,demo,001,2025-03-24_16h58.34.387,Bonnen2015_2afc,2024.2.4,None,2025-03-24 16h58.40.675932 -0400,
1.0,0.07,-0.16,27,27,0,left,0.13446808303706348,None,0,27,27,44,28.03946962498594,,,,,,,,,28.017188583035022,28.03946962498594,28.093131833011284,28.355546583072282,28.456153333070688,28.705911791999824,28.75584933301434,28.75584933301434,28.786700375028886,28.89151387498714,left,0.13446808303706348,None,demo,001,2025-03-24_16h58.34.387,Bonnen2015_2afc,2024.2.4,None,2025-03-24 16h58.40.675932 -0400,
0.1045,0.67,0.01,28,28,0,right,0.220117749995552,None,0,28,28,11,28.936132917064242,,,,,,,,,28.914860208053142,28.936132917064242,29.006679582991637,29.255918791983277,29.356722417054698,29.60739087499678,29.642175292014144,29.642175292014144,29.68672412505839,29.871997541980818,right,0.220117749995552,None,demo,001,2025-03-24_16h58.34.387,Bonnen2015_2afc,2024.2.4,None,2025-03-24 16h58.40.675932 -0400,
0.1489,0.47,-0.01,29,29,0,left,0.27616133296396583,None,0,29,29,30,29.92114841705188,,,,,,,,,29.89817912504077,29.92114841705188,29.974689207971096,30.227062833029777,30.32415604207199,30.59030649997294,30.622701333020814,30.622701333020814,30.670088791986927,30.9055512920022,left,0.27616133296396583,None,demo,001,2025-03-24_16h58.34.387,Bonnen2015_2afc,2024.2.4,None,2025-03-24 16h58.40.675932 -0400,
0.1489,0.47,0.01,30,30,0,right,0.2475797920487821,None,0,30,30,10,30.956391000072472,,,,,,,,,30.932329792063683,30.956391000072472,31.0093039580388,31.273424750077538,31.357705125003122,31.62296691699885,31.65616274997592,31.65616274997592,31.703404167084955,31.9057237500092,right,0.2475797920487821,None,demo,001,2025-03-24_16h58.34.387,Bonnen2015_2afc,2024.2.4,None,2025-03-24 16h58.40.675932 -0400,
1.0,0.07,0.08,31,31,0,right,0.1231732500018552,None,0,31,31,20,31.953530166996643,,,,,,,,,31.930945832980797,31.953530166996643,32.0063280420145,32.25647525000386,32.3563616250176,32.60591583303176,32.65629066701513,32.65629066701513,32.703374166972935,32.78830754198134,right,0.1231732500018552,None,demo,001,2025-03-24_16h58.34.387,Bonnen2015_2afc,2024.2.4,None,2025-03-24 16h58.40.675932 -0400,
0.1489,0.47,-0.02,32,32,0,left,0.36478179099503905,None,0,32,32,34,32.831896124989726,,,,,,,,,32.810769292060286,32.831896124989726,32.898796042078175,33.16036362503655,33.24116862507071,33.50557608297095,33.54202808300033,33.54202808300033,33.586844917037524,33.90817783307284,left,0.36478179099503905,None,demo,001,2025-03-24_16h58.34.387,Bonnen2015_2afc,2024.2.4,None,2025-03-24 16h58.40.675932 -0400,
0.1489,0.47,0.02,33,33,0,right,0.23723991599399596,None,0,33,33,14,33.95977058308199,,,,,,,,,33.93611645803321,33.95977058308199,34.014197375043295,34.27689137507696,34.358623625012115,34.62301945802756,34.67546333302744,34.67546333302744,34.72011354204733,34.92224383307621,right,0.23723991599399596,None,demo,001,2025-03-24_16h58.34.387,Bonnen2015_2afc,2024.2.4,None,2025-03-24 16h58.40.675932 -0400,
1.0,0.07,0.02,34,34,0,right,0.1843762081116438,None,0,34,34,12,34.9707604580326,,,,,,,,,34.947956292075105,34.9707604580326,35.02471150003839,35.274941083043814,35.372641082969494,35.622505542007275,35.672436207998544,35.672436207998544,35.72005291702226,35.858002458000556,right,0.1843762081116438,None,demo,001,2025-03-24_16h58.34.387,Bonnen2015_2afc,2024.2.4,None,2025-03-24 16h58.40.675932 -0400,
0.1489,0.47,0.005,35,35,0,left,0.5419736249605194,None,0,35,35,6,35.90279633307364,,,,,,,,,35.88149929197971,35.90279633307364,35.97268858307507,36.22321845800616,36.32403412507847,36.572713917004876,36.62272879201919,36.62272879201919,36.65336062503047,37.17202795797493,left,0.5419736249605194,None,demo,001,2025-03-24_16h58.34.387,Bonnen2015_2afc,2024.2.4,None,2025-03-24 16h58.40.675932 -0400,
0.1489,0.47,-0.04,36,36,0,left,0.3263788749463856,None,0,36,36,38,37.22506129206158,,,,,,,,,37.201096083037555,37.22506129206158,37.27965587505605,37.54099008301273,37.623375458060764,37.88923275005072,37.922403958044015,37.922403958044015,37.98666029202286,38.255271458067,left,0.3263788749463856,None,demo,001,2025-03-24_16h58.34.387,Bonnen2015_2afc,2024.2.4,None,2025-03-24 16h58.40.675932 -0400,
0.2593,0.27,0.005,37,37,0,right,0.30062641692347825,None,0,37,37,5,38.30578604200855,,,,,,,,,38.28263762500137,38.30578604200855,38.36019983305596,38.60925462504383,38.70637245802209,38.95630570803769,39.00607841706369,39.00607841706369,39.05330904200673,39.30812104197685,right,0.30062641692347825,None,demo,001,2025-03-24_16h58.34.387,Bonnen2015_2afc,2024.2.4,None,2025-03-24 16h58.40.675932 -0400,
0.1045,0.67,-0.08,38,38,0,left,0.2690392090007663,None,0,38,38,43,39.3579256250523,,,,,,,,,39.334687583032064,39.3579256250523,39.41151750006247,39.67421979201026,39.75827529199887,40.022396499989554,40.07253066706471,40.07253066706471,40.11999370798003,40.355316667002626,left,0.2690392090007663,None,demo,001,2025-03-24_16h58.34.387,Bonnen2015_2afc,2024.2.4,None,2025-03-24 16h58.40.675932 -0400,
0.1045,0.67,-0.01,39,39,0,right,0.7906982079148293,None,0,39,39,31,40.40400554204825,,,,,,,,,40.381328667048365,40.40400554204825,40.457915458013304,40.72241104207933,40.806303875055164,41.056160958018154,41.106087082996964,41.106087082996964,41.1534213750856,41.90594120800961,right,0.7906982079148293,None,demo,001,2025-03-24_16h58.34.387,Bonnen2015_2afc,2024.2.4,None,2025-03-24 16h58.40.675932 -0400,
1.0,0.07,0.0,40,40,0,right,0.41653237503487617,None,0,40,40,0,41.960407458012924,,,,,,,,,41.936090458068065,41.960407458012924,42.01631220802665,42.276907792082056,42.35843379201833,42.622892833082005,42.65619012503885,42.65619012503885,42.7199323750101,43.07439645798877,right,0.41653237503487617,None,demo,001,2025-03-24_16h58.34.387,Bonnen2015_2afc,2024.2.4,None,2025-03-24 16h58.40.675932 -0400,
0.1489,0.47,0.16,41,41,0,right,0.1768522079801187,None,0,41,41,26,43.123441750067286,,,,,,,,,43.100712625076994,43.123441750067286,43.176443916978315,43.43927779200021,43.539466792019084,43.790786167024635,43.83969762502238,43.83969762502238,43.86994920799043,44.021777583053336,right,0.1768522079801187,None,demo,001,2025-03-24_16h58.34.387,Bonnen2015_2afc,2024.2.4,None,2025-03-24 16h58.40.675932 -0400,
0.2593,0.27,-0.04,42,42,0,left,0.3315890410449356,None,0,42,42,37,44.06872583297081,,,,,,,,,44.046564583084546,44.06872583297081,44.123136583017185,44.37412200006656,44.47264808299951,44.723307957989164,44.774522333056666,44.774522333056666,44.819891125080176,45.107963207992725,left,0.3315890410449356,None,demo,001,2025-03-24_16h58.34.387,Bonnen2015_2afc,2024.2.4,None,2025-03-24 16h58.40.675932 -0400,
0.1045,0.67,-0.16,43,43,0,left,0.2663825829513371,None,0,43,43,47,45.1575787080219,,,,,,,,,45.13468150002882,45.1575787080219,45.21130299998913,45.47551612497773,45.572664875071496,45.82225237507373,45.85859266703483,45.85859266703483,45.90333466697484,46.138557750033215,left,0.2663825829513371,None,demo,001,2025-03-24_16h58.34.387,Bonnen2015_2afc,2024.2.4,None,2025-03-24 16h58.40.675932 -0400,
0.1489,0.47,0.0,44,44,0,right,0.26127204101067036,None,0,44,44,2,46.18903337500524,,,,,,,,,46.16583720804192,46.18903337500524,46.24252912506927,46.49213804199826,46.59158012503758,46.856008999980986,46.88930062507279,46.88930062507279,46.936556500033475,47.155253542005084,right,0.26127204101067036,None,demo,001,2025-03-24_16h58.34.387,Bonnen2015_2afc,2024.2.4,None,2025-03-24 16h58.40.675932 -0400,
0.1045,0.67,-0.04,45,45,0,left,0.2523605830501765,None,0,45,45,39,47.20369945804123,,,,,,,,,47.18091325007845,47.20369945804123,47.25638999999501,47.506462083081715,47.607543291989714,47.872341708047315,47.90619462507311,47.90619462507311,47.95338354201522,48.17146133305505,left,0.2523605830501765,None,demo,001,2025-03-24_16h58.34.387,Bonnen2015_2afc,2024.2.4,None,2025-03-24 16h58.40.675932 -0400,
1.0,0.07,0.16,46,46,0,right,0.09995533304754645,None,0,46,46,24,48.22043687500991,,,,,,,,,48.19741124997381,48.22043687500991,48.273185958038084,48.52240250003524,48.622980916989036,48.8725003330037,48.92264470807277,48.92264470807277,48.97006279206835,49.03746016707737,right,0.09995533304754645,None,demo,001,2025-03-24_16h58.34.387,Bonnen2015_2afc,2024.2.4,None,2025-03-24 16h58.40.675932 -0400,
0.1045,0.67,0.0,47,47,0,right,0.45698566699866205,None,0,47,47,3,49.07585729204584,,,,,,,,,49.05802195798606,49.07585729204584,49.14140595798381,49.40603320801165,49.48905862506945,49.73964100005105,49.79235333297402,49.79235333297402,49.81995245802682,50.25563550007064,right,0.45698566699866205,None,demo,001,2025-03-24_16h58.34.387,Bonnen2015_2afc,2024.2.4,None,2025-03-24 16h58.40.675932 -0400,
0.1489,0.47,-0.02,48,0,1,left,0.27312129200436175,None,1,0,48,34,50.31034604203887,,,,,,,,,50.28611037507653,50.31034604203887,50.365867333021015,50.6256940420717,50.70590508298483,50.95832083304413,51.00599245808553,51.00599245808553,51.069991667056456,51.28867525001988,left,0.27312129200436175,None,demo,001,2025-03-24_16h58.34.387,Bonnen2015_2afc,2024.2.4,None,2025-03-24 16h58.40.675932 -0400,
0.2593,0.27,0.16,49,1,1,right,0.1558451249729842,None,1,1,49,25,51.33793970802799,,,,,,,,,51.31453729199711,51.33793970802799,51.40498816699255,51.65628095797729,51.73925666697323,51.989400708000176,52.04356529202778,52.04356529202778,52.086727541987784,52.20530437503476,right,0.1558451249729842,None,demo,001,2025-03-24_16h58.34.387,Bonnen2015_2afc,2024.2.4,None,2025-03-24 16h58.40.675932 -0400,
1.0,0.07,0.0,50,2,1,right,0.27843149995896965,None,1,2,50,0,52.25041516707279,,,,,,,,,52.22846400004346,52.25041516707279,52.318211500067264,52.58079587505199,52.66119075007737,52.92318833305035,52.956171542056836,52.956171542056836,53.00291916704737,53.238977708038874,right,0.27843149995896965,None,demo,001,2025-03-24_16h58.34.387,Bonnen2015_2afc,2024.2.4,None,2025-03-24 16h58.40.675932 -0400,
1.0,0.07,0.01,51,3,1,right,0.16641675005666912,None,1,3,51,8,53.28875700000208,,,,,,,,,53.265322042047046,53.28875700000208,53.342041167081334,53.605754083022475,53.6942723330576,53.95609845803119,53.989668417023495,53.989668417023495,54.03666950005572,54.15858545806259,right,0.16641675005666912,None,demo,001,2025-03-24_16h58.34.387,Bonnen2015_2afc,2024.2.4,None,2025-03-24 16h58.40.675932 -0400,
0.2593,0.27,0.02,52,4,1,right,0.24546250002458692,None,1,4,52,13,54.20396904204972,,,,,,,,,54.181907542049885,54.20396904204972,54.276287125074305,54.53967070800718,54.62293641699944,54.87509687501006,54.90717683301773,54.90717683301773,54.95340383297298,55.15526324999519,right,0.24546250002458692,None,demo,001,2025-03-24_16h58.34.387,Bonnen2015_2afc,2024.2.4,None,2025-03-24 16h58.40.675932 -0400,
0.1489,0.47,-0.16,53,5,1,left,0.22666941699571908,None,1,5,53,46,55.203937708050944,,,,,,,,,55.18093245802447,55.203937708050944,55.25870920799207,55.523783750017174,55.606907958048396,55.85639395797625,55.906161417020485,55.906161417020485,55.95332287508063,56.13866033300292,left,0.22666941699571908,None,demo,001,2025-03-24_16h58.34.387,Bonnen2015_2afc,2024.2.4,None,2025-03-24 16h58.40.675932 -0400,
0.1489,0.47,0.01,54,6,1,right,0.43491008307319134,None,1,6,54,10,56.18777195806615,,,,,,,,,56.16481583297718,56.18777195806615,56.24263524997514,56.50971750007011,56.59055191697553,56.83893320802599,56.88938766706269,56.88938766706269,56.93659454199951,57.33889816701412,right,0.43491008307319134,None,demo,001,2025-03-24_16h58.34.387,Bonnen2015_2afc,2024.2.4,None,2025-03-24 16h58.40.675932 -0400,
0.1489,0.47,-0.01,55,7,1,left,0.24168191594071686,None,1,7,55,30,57.39148104202468,,,,,,,,,57.367946958052926,57.39148104202468,57.44683620799333,57.70926758297719,57.79083241708577,58.05654270807281,58.09081491699908,58.09081491699908,58.153195291990414,58.3388391250046,left,0.24168191594071686,None,demo,001,2025-03-24_16h58.34.387,Bonnen2015_2afc,2024.2.4,None,2025-03-24 16h58.40.675932 -0400,
0.1489,0.47,0.08,56,8,1,right,0.16725808300543576,None,1,8,56,22,58.386957000009716,,,,,,,,,58.36435929208528,58.386957000009716,58.44087125000078,58.70623091701418,58.79148262506351,59.056437792023644,59.08973470807541,59.08973470807541,59.13656533299945,59.25817849999294,right,0.16725808300543576,None,demo,001,2025-03-24_16h58.34.387,Bonnen2015_2afc,2024.2.4,None,2025-03-24 16h58.40.675932 -0400,
1.0,0.07,0.16,57,9,1,right,0.17015383299440145,None,1,9,57,24,59.302063458017074,,,,,,,,,59.281088958028704,59.302063458017074,59.37005087500438,59.631196917034686,59.711547999992035,59.97323237499222,60.023010042030364,60.023010042030364,60.05328700004611,60.205239917035215,right,0.17015383299440145,None,demo,001,2025-03-24_16h58.34.387,Bonnen2015_2afc,2024.2.4,None,2025-03-24 16h58.40.675932 -0400,
1.0,0.07,-0.01,58,10,1,left,0.3207537910202518,None,1,10,58,28,60.25139524997212,,,,,,,,,60.22947529202793,60.25139524997212,60.31867120799143,60.57511183305178,60.65689125005156,60.92312108306214,60.95710062503349,60.95710062503349,61.00318487500772,61.28911891707685,left,0.3207537910202518,None,demo,001,2025-03-24_16h58.34.387,Bonnen2015_2afc,2024.2.4,None,2025-03-24 16h58.40.675932 -0400,
0.2593,0.27,0.005,59,11,1,right,0.20292158401571214,None,1,11,59,5,61.339930874994025,,,,,,,,,61.316583208041266,61.339930874994025,61.404877667082474,61.65578050003387,61.73948862508405,61.98961445805617,62.03894041699823,62.03894041699823,62.08668483304791,62.255563125014305,right,0.20292158401571214,None,demo,001,2025-03-24_16h58.34.387,Bonnen2015_2afc,2024.2.4,None,2025-03-24 16h58.40.675932 -0400,
0.1045,0.67,0.0,60,12,1,left,0.4557091670576483,None,1,12,60,3,62.304078167071566,,,,,,,,,62.28136333299335,62.304078167071566,62.35817808296997,62.622969791991636,62.70806358300615,62.9734124999959,63.00575941707939,63.00575941707939,63.05337270803284,63.47229016700294,left,0.4557091670576483,None,demo,001,2025-03-24_16h58.34.387,Bonnen2015_2afc,2024.2.4,None,2025-03-24 16h58.40.675932 -0400,
0.2593,0.27,-0.08,61,13,1,left,0.142109667067416,None,1,13,61,41,63.526012458023615,,,,,,,,,63.50222016707994,63.526012458023615,63.58162375004031,63.84304391697515,63.92426225007512,64.189817583072,64.2229948330205,64.2229948330205,64.28664279205259,64.3715590420179,left,0.142109667067416,None,demo,001,2025-03-24_16h58.34.387,Bonnen2015_2afc,2024.2.4,None,2025-03-24 16h58.40.675932 -0400,
1.0,0.07,0.02,62,14,1,right,0.15625820797868073,None,1,14,62,12,64.41550987504888,,,,,,,,,64.39346579206176,64.41550987504888,64.48329458304215,64.74604633299168,64.82684620807413,65.08969833306037,65.12277045799419,65.12277045799419,65.16990312503185,65.28846425004303,right,0.15625820797868073,None,demo,001,2025-03-24_16h58.34.387,Bonnen2015_2afc,2024.2.4,None,2025-03-24 16h58.40.675932 -0400,
0.1045,0.67,0.005,63,15,1,left,0.26116716698743403,None,1,15,63,7,65.33381108299363,,,,,,,,,65.31214329204522,65.33381108299363,65.40157662506681,65.6629040830303,65.74378925003111,66.00754979206249,66.04205083299894,66.04205083299894,66.08668529207353,66.30541000002995,left,0.26116716698743403,None,demo,001,2025-03-24_16h58.34.387,Bonnen2015_2afc,2024.2.4,None,2025-03-24 16h58.40.675932 -0400,
0.1045,0.67,-0.16,64,16,1,left,0.26713225001003593,None,1,16,64,47,66.35602625005413,,,,,,,,,66.33246212499216,66.35602625005413,66.41053170803934,66.67301958298776,66.75692329206504,67.00673333299346,67.0563165419735,67.0563165419735,67.10330708301626,67.32470516697504,left,0.26713225001003593,None,demo,001,2025-03-24_16h58.34.387,Bonnen2015_2afc,2024.2.4,None,2025-03-24 16h58.40.675932 -0400,
0.1045,0.67,-0.01,65,17,1,left,0.2917848749784753,None,1,17,65,31,67.37750375003088,,,,,,,,,67.35064666706603,67.37750375003088,67.43081629206426,67.69257804204244,67.77345795801375,68.02284845802933,68.08983891701791,68.08983891701791,68.13655345805455,68.3890440830728,left,0.2917848749784753,None,demo,001,2025-03-24_16h58.34.387,Bonnen2015_2afc,2024.2.4,None,2025-03-24 16h58.40.675932 -0400,
0.2593,0.27,-0.04,66,18,1,left,0.22255758300889283,None,1,18,66,37,68.43855000007898,,,,,,,,,68.41533054201864,68.43855000007898,68.49118966702372,68.75614575005602,68.84238950000145,69.10742354206741,69.13969737500884,69.13969737500884,69.186533833039,69.37185745802708,left,0.22255758300889283,None,demo,001,2025-03-24_16h58.34.387,Bonnen2015_2afc,2024.2.4,None,2025-03-24 16h58.40.675932 -0400,
0.1489,0.47,0.005,67,19,1,right,0.18295537505764514,None,1,19,67,6,69.4198345830664,,,,,,,,,69.397194167017,69.4198345830664,69.47436770808417,69.72316179203335,69.82347016700078,70.07301204197574,70.1230311250547,70.1230311250547,70.17029783304315,70.30822316708509,right,0.18295537505764514,None,demo,001,2025-03-24_16h58.34.387,Bonnen2015_2afc,2024.2.4,None,2025-03-24 16h58.40.675932 -0400,
0.2593,0.27,0.04,68,20,1,right,0.2676060419762507,None,1,20,68,17,70.35426520800684,,,,,,,,,70.33219650003593,70.35426520800684,70.42296108300798,70.67264062503818,70.77300858299714,71.02297241706401,71.05853074998595,71.05853074998595,71.10320108302403,71.33872162504122,right,0.2676060419762507,None,demo,001,2025-03-24_16h58.34.387,Bonnen2015_2afc,2024.2.4,None,2025-03-24 16h58.40.675932 -0400,
1.0,0.07,-0.04,69,21,1,left,0.15145791694521904,None,1,21,69,36,71.3890353749739,,,,,,,,,71.36548604199197,71.3890353749739,71.44365970802028,71.70710141700692,71.79004862497095,72.05573837505654,72.08916262502316,72.08916262502316,72.1367003750056,72.24187679204624,left,0.15145791694521904,None,demo,001,2025-03-24_16h58.34.387,Bonnen2015_2afc,2024.2.4,None,2025-03-24 16h58.40.675932 -0400,
0.1045,0.67,0.08,70,22,1,right,0.23775483400095254,None,1,22,70,23,72.28500641707797,,,,,,,,,72.26440995803569,72.28500641707797,72.35274454206228,72.61425441701431,72.69517579197418,72.95722095808014,73.00625704205595,73.00625704205595,73.03672154201195,73.2552755830111,right,0.23775483400095254,None,demo,001,2025-03-24_16h58.34.387,Bonnen2015_2afc,2024.2.4,None,2025-03-24 16h58.40.675932 -0400,
1.0,0.07,-0.16,71,23,1,left,0.21822045801673084,None,1,23,71,44,73.3042761250399,,,,,,,,,73.28105137497187,73.3042761250399,73.3575642920332,73.62293070799205,73.70662845799234,73.95708608301356,74.00694862497039,74.00694862497039,74.0532862499822,74.23862920806278,left,0.21822045801673084,None,demo,001,2025-03-24_16h58.34.387,Bonnen2015_2afc,2024.2.4,None,2025-03-24 16h58.40.675932 -0400,
0.1045,0.67,0.04,72,24,1,right,0.30627483304124326,None,1,24,72,19,74.28940304205753,,,,,,,,,74.264533083071,74.28940304205753,74.3430975000374,74.60704133298714,74.68995725002605,74.93982333305757,74.99139691703022,74.99139691703022,75.03667495807167,75.30524658306967,right,0.30627483304124326,None,demo,001,2025-03-24_16h58.34.387,Bonnen2015_2afc,2024.2.4,None,2025-03-24 16h58.40.675932 -0400,
1.0,0.07,0.08,73,25,1,right,0.17913474992383271,None,1,25,73,20,75.35615204204805,,,,,,,,,75.33249841700308,75.35615204204805,75.42108487500809,75.67384458298329,75.7572020420339,76.00683854206,76.0562384580262,76.0562384580262,76.10326333297417,76.23854429204948,right,0.17913474992383271,None,demo,001,2025-03-24_16h58.34.387,Bonnen2015_2afc,2024.2.4,None,2025-03-24 16h58.40.675932 -0400,
1.0,0.07,-0.02,74,26,1,left,0.14769316709134728,None,1,26,74,32,76.28488595806994,,,,,,,,,76.26240337500349,76.28488595806994,76.35355895804241,76.6070792080136,76.69115087506361,76.95573087502271,76.98939045798033,76.98939045798033,77.03665708308108,77.13832083297893,left,0.14769316709134728,None,demo,001,2025-03-24_16h58.34.387,Bonnen2015_2afc,2024.2.4,None,2025-03-24 16h58.40.675932 -0400,
0.1489,0.47,0.0,75,27,1,right,0.35149716690648347,None,1,27,75,2,77.18252854200546,,,,,,,,,77.16127725003753,77.18252854200546,77.25045504199807,77.51117154199164,77.5921264999779,77.84151749999728,77.88934220804367,77.88934220804367,77.93655729200691,78.25564779201522,right,0.35149716690648347,None,demo,001,2025-03-24_16h58.34.387,Bonnen2015_2afc,2024.2.4,None,2025-03-24 16h58.40.675932 -0400,
0.2593,0.27,0.0,76,28,1,left,0.8884610829409212,None,1,28,76,1,78.30762595799752,,,,,,,,,78.28402625001036,78.30762595799752,78.36238104198128,78.62292945804074,78.70699683297426,78.9569589169696,79.00671004201286,79.00671004201286,79.0533781250706,79.90564600005746,left,0.8884610829409212,None,demo,001,2025-03-24_16h58.34.387,Bonnen2015_2afc,2024.2.4,None,2025-03-24 16h58.40.675932 -0400,
0.1045,0.67,0.16,77,29,1,right,0.262509832973592,None,1,29,77,27,79.9606190000195,,,,,,,,,79.93644216703251,79.9606190000195,80.01608320802916,80.27729887503665,80.35789508302696,80.60825204197317,80.65654862497468,80.65654862497468,80.71988583297934,80.92146629199851,right,0.262509832973592,None,demo,001,2025-03-24_16h58.34.387,Bonnen2015_2afc,2024.2.4,None,2025-03-24 16h58.40.675932 -0400,
1.0,0.07,0.04,78,30,1,right,0.1329607090447098,None,1,30,78,16,80.97096945799422,,,,,,,,,80.94772658299189,80.97096945799422,81.02413749997504,81.2735695419833,81.37364620808512,81.63996516703628,81.67399191705044,81.67399191705044,81.71989954204764,81.80803262500558,right,0.1329607090447098,None,demo,001,2025-03-24_16h58.34.387,Bonnen2015_2afc,2024.2.4,None,2025-03-24 16h58.40.675932 -0400,
0.1489,0.47,-0.04,79,31,1,left,0.17910445795860142,None,1,31,79,38,81.850249750074,,,,,,,,,81.82963937497698,81.850249750074,81.91792074998375,82.17814612505026,82.25932608300354,82.52282000007108,82.57314045797102,82.57314045797102,82.60326654207893,82.75509600003716,left,0.17910445795860142,None,demo,001,2025-03-24_16h58.34.387,Bonnen2015_2afc,2024.2.4,None,2025-03-24 16h58.40.675932 -0400,
0.1489,0.47,0.16,80,32,1,right,0.19941699993796647,None,1,32,80,26,82.8020932499785,,,,,,,,,82.78011441708077,82.8020932499785,82.87034487503115,83.12330666708294,83.20697195804678,83.45859300007578,83.50737354205921,83.50737354205921,83.55318354198243,83.70832716708537,right,0.19941699993796647,None,demo,001,2025-03-24_16h58.34.387,Bonnen2015_2afc,2024.2.4,None,2025-03-24 16h58.40.675932 -0400,
0.2593,0.27,-0.16,81,33,1,left,0.25438204198144376,None,1,33,81,45,83.75632300006691,,,,,,,,,83.73307175002992,83.75632300006691,83.80984591704328,84.07357170805335,84.17240675003268,84.42292325000744,84.47452162497211,84.47452162497211,84.50346408307087,84.73860008304473,left,0.25438204198144376,None,demo,001,2025-03-24_16h58.34.387,Bonnen2015_2afc,2024.2.4,None,2025-03-24 16h58.40.675932 -0400,
0.1045,0.67,0.02,82,34,1,right,0.6917348339920864,None,1,34,82,15,84.7887597080553,,,,,,,,,84.7650072920369,84.7887597080553,84.84236675000284,85.09114408306777,85.18974545807578,85.43953316705301,85.48900320800021,85.48900320800021,85.5366941250395,86.1890255829785,right,0.6917348339920864,None,demo,001,2025-03-24_16h58.34.387,Bonnen2015_2afc,2024.2.4,None,2025-03-24 16h58.40.675932 -0400,
0.1045,0.67,-0.04,83,35,1,left,0.3336078750435263,None,1,35,83,39,86.24424925004132,,,,,,,,,86.22029041708447,86.24424925004132,86.30226174998097,86.56422008306254,86.64497899997514,86.90758100000676,86.9409537500469,86.9409537500469,87.00321858306415,87.27643079205882,left,0.3336078750435263,None,demo,001,2025-03-24_16h58.34.387,Bonnen2015_2afc,2024.2.4,None,2025-03-24 16h58.40.675932 -0400,
0.2593,0.27,-0.01,84,36,1,left,0.3708390420069918,None,1,36,84,29,87.32582033297513,,,,,,,,,87.30319445801433,87.32582033297513,87.37980395799968,87.6418765829876,87.74050608300604,87.98904437501915,88.0395389170153,88.0395389170153,88.08652512507979,88.42234179202933,left,0.3708390420069918,None,demo,001,2025-03-24_16h58.34.387,Bonnen2015_2afc,2024.2.4,None,2025-03-24 16h58.40.675932 -0400,
0.1489,0.47,-0.08,85,37,1,left,0.301170542021282,None,1,37,85,42,88.47422229207586,,,,,,,,,88.45062412507832,88.47422229207586,88.52890983305406,88.7901205830276,88.87289037497249,89.12270166701637,89.17244879202917,89.17244879202917,89.23660691699479,89.47498558298685,left,0.301170542021282,None,demo,001,2025-03-24_16h58.34.387,Bonnen2015_2afc,2024.2.4,None,2025-03-24 16h58.40.675932 -0400,
0.2593,0.27,-0.02,86,38,1,left,0.20897795900236815,None,1,38,86,33,89.52521904197056,,,,,,,,,89.50180554203689,89.52521904197056,89.57839595805854,89.84117029199842,89.93929820798803,90.19126570806839,90.23942220804747,90.23942220804747,90.28672112501226,90.4553755420493,left,0.20897795900236815,None,demo,001,2025-03-24_16h58.34.387,Bonnen2015_2afc,2024.2.4,None,2025-03-24 16h58.40.675932 -0400,
0.2593,0.27,0.08,87,39,1,right,0.1409444169839844,None,1,39,87,21,90.50390770798549,,,,,,,,,90.48101045808289,90.50390770798549,90.55803962505888,90.82219779200386,90.90597854205407,91.15580658300314,91.20712395804003,91.20712395804003,91.25322383304592,91.3549817079911,right,0.1409444169839844,None,demo,001,2025-03-24_16h58.34.387,Bonnen2015_2afc,2024.2.4,None,2025-03-24 16h58.40.675932 -0400,
0.1045,0.67,0.01,88,40,1,right,0.38304683309979737,None,1,40,88,11,91.39904754201416,,,,,,,,,91.37768550007604,91.39904754201416,91.46738533303142,91.72833104198799,91.80928683304228,92.07300683297217,92.10650308302138,92.10650308302138,92.15330595802516,92.49189554201439,right,0.38304683309979737,None,demo,001,2025-03-24_16h58.34.387,Bonnen2015_2afc,2024.2.4,None,2025-03-24 16h58.40.675932 -0400,
0.1489,0.47,0.04,89,41,1,right,0.37378729204647243,None,1,41,89,18,92.5419280420756,,,,,,,,,92.5189029170433,92.5419280420756,92.59608079202008,92.85957249999046,92.95629566698335,93.20573908300139,93.25580333301332,93.25580333301332,93.30322070803959,93.63871333305724,right,0.37378729204647243,None,demo,001,2025-03-24_16h58.34.387,Bonnen2015_2afc,2024.2.4,None,2025-03-24 16h58.40.675932 -0400,
0.1045,0.67,-0.02,90,42,1,left,0.41780512500554323,None,1,42,90,35,93.69081245805137,,,,,,,,,93.6674182920251,93.69081245805137,93.74642845802009,94.00868187507149,94.08961616700981,94.3399902919773,94.38943500001915,94.38943500001915,94.45321599999443,94.80912516708486,left,0.41780512500554323,None,demo,001,2025-03-24_16h58.34.387,Bonnen2015_2afc,2024.2.4,None,2025-03-24 16h58.40.675932 -0400,
0.2593,0.27,0.01,91,43,1,right,0.3503940000664443,None,1,43,91,9,94.86049049999565,,,,,,,,,94.83670770807657,94.86049049999565,94.91571962507442,95.17751729197334,95.25890970800538,95.52305625006557,95.57266362500377,95.57266362500377,95.61996495805215,95.92529520799872,right,0.3503940000664443,None,demo,001,2025-03-24_16h58.34.387,Bonnen2015_2afc,2024.2.4,None,2025-03-24 16h58.40.675932 -0400,
1.0,0.07,0.005,92,44,1,right,0.3021470420062542,None,1,44,92,4,95.97655366698746,,,,,,,,,95.95315012498759,95.97655366698746,96.0339037500089,96.29416179202963,96.37555295799393,96.63904129201546,96.69034158298746,96.69034158298746,96.73659962497186,97.00556000007782,right,0.3021470420062542,None,demo,001,2025-03-24_16h58.34.387,Bonnen2015_2afc,2024.2.4,None,2025-03-24 16h58.40.675932 -0400,
0.1489,0.47,0.02,93,45,1,right,0.5005968329496682,None,1,45,93,14,97.05605779204052,,,,,,,,,97.03229158301838,97.05605779204052,97.11065612500533,97.376468667062,97.45757233304903,97.72327795799356,97.75628770806361,97.75628770806361,97.80304520798381,98.25923141697422,right,0.5005968329496682,None,demo,001,2025-03-24_16h58.34.387,Bonnen2015_2afc,2024.2.4,None,2025-03-24 16h58.40.675932 -0400,
1.0,0.07,-0.08,94,46,1,left,0.17253404192160815,None,1,46,94,40,98.31201970798429,,,,,,,,,98.28830137499608,98.31201970798429,98.36864958307706,98.6289407920558,98.70959479198791,98.97292750002816,99.02251458307728,99.02251458307728,99.06994858302642,99.20494862506166,left,0.17253404192160815,None,demo,001,2025-03-24_16h58.34.387,Bonnen2015_2afc,2024.2.4,None,2025-03-24 16h58.40.675932 -0400,
0.1045,0.67,-0.08,95,47,1,right,1.0160452920245007,None,1,47,95,43,99.2506631250726,,,,,,,,,99.2288268749835,99.2506631250726,99.31984545802698,99.5809303750284,99.6612138330238,99.92296670807991,99.95635320805013,99.95635320805013,100.00325454201084,100.97593058308121,right,1.0160452920245007,None,demo,001,2025-03-24_16h58.34.387,Bonnen2015_2afc,2024.2.4,None,2025-03-24 16h58.40.675932 -0400,
0.1489,0.47,0.04,96,0,2,right,0.23893383389804512,None,2,0,96,18,101.03466412506532,,,,,,,,,101.0097153329989,101.03466412506532,101.09198554197792,101.34293958300259,101.43978229200002,101.69000470801257,101.73940870806109,101.73940870806109,101.78651837504003,101.98853929201141,right,0.23893383389804512,None,demo,001,2025-03-24_16h58.34.387,Bonnen2015_2afc,2024.2.4,None,2025-03-24 16h58.40.675932 -0400,
0.1489,0.47,-0.16,97,1,2,left,0.21030662499833852,None,2,1,97,46,102.03671020804904,,,,,,,,,102.01390779204667,102.03671020804904,102.09078595798928,102.34711149998475,102.45088920800481,102.71345033298712,102.74574408307672,102.74574408307672,102.78650933306199,102.9588419169886,left,0.21030662499833852,None,demo,001,2025-03-24_16h58.34.387,Bonnen2015_2afc,2024.2.4,None,2025-03-24 16h58.40.675932 -0400,
1.0,0.07,0.02,98,2,2,right,0.20638866594526917,None,2,2,98,12,103.0016972500598,,,,,,,,,102.98204145801719,103.0016972500598,103.06814850005321,103.32699820806738,103.40802375006024,103.67264775000513,103.72303245798685,103.72303245798685,103.75325304199941,103.93861429207027,right,0.20638866594526917,None,demo,001,2025-03-24_16h58.34.387,Bonnen2015_2afc,2024.2.4,None,2025-03-24 16h58.40.675932 -0400,
1.0,0.07,-0.04,99,3,2,left,0.1655392920365557,None,2,3,99,36,103.98885616706684,,,,,,,,,103.96478525002021,103.98885616706684,104.04366950003896,104.30556762497872,104.38927270798013,104.63998329197057,104.69108345801942,104.69108345801942,104.7365887920605,104.85790175001603,left,0.1655392920365557,None,demo,001,2025-03-24_16h58.34.387,Bonnen2015_2afc,2024.2.4,None,2025-03-24 16h58.40.675932 -0400,
1.0,0.07,0.01,100,4,2,right,0.14006058301310986,None,2,4,100,8,104.90430925006513,,,,,,,,,104.88188416697085,104.90430925006513,104.97241237503476,105.22558341699187,105.32304570800625,105.57249962503556,105.6237383330008,105.6237383330008,105.65328933298588,105.77159975003451,right,0.14006058301310986,None,demo,001,2025-03-24_16h58.34.387,Bonnen2015_2afc,2024.2.4,None,2025-03-24 16h58.40.675932 -0400,
0.2593,0.27,0.16,101,5,2,right,0.18403312494046986,None,2,5,101,25,105.8166752080433,,,,,,,,,105.79486124997493,105.8166752080433,105.88557649997529,106.14505350007676,106.22581483307295,106.48965820798185,106.52293887501583,106.52293887501583,106.56993975001387,106.7081147080753,right,0.18403312494046986,None,demo,001,2025-03-24_16h58.34.387,Bonnen2015_2afc,2024.2.4,None,2025-03-24 16h58.40.675932 -0400,
1.0,0.07,0.08,102,6,2,right,0.1308145000366494,None,2,6,102,20,106.75383883307222,,,,,,,,,106.73211341700517,106.75383883307222,106.82415745803155,107.08924691705033,107.17277412500698,107.42236349999439,107.47565833304543,107.47565833304543,107.50326233298983,107.60897795797791,right,0.1308145000366494,None,demo,001,2025-03-24_16h58.34.387,Bonnen2015_2afc,2024.2.4,None,2025-03-24 16h58.40.675932 -0400,
0.1045,0.67,-0.01,103,7,2,left,0.299705957993865,None,2,7,103,31,107.65335670800414,,,,,,,,,107.63218633306678,107.65335670800414,107.72288791707251,107.97245291701984,108.07392291701399,108.32347120798659,108.37321095797233,108.37321095797233,108.40329487505369,108.6741495829774,left,0.299705957993865,None,demo,001,2025-03-24_16h58.34.387,Bonnen2015_2afc,2024.2.4,None,2025-03-24 16h58.40.675932 -0400,
0.2593,0.27,-0.08,104,8,2,left,0.20380787504836917,None,2,8,104,41,108.72286629199516,,,,,,,,,108.69995520799421,108.72286629199516,108.77727083303034,109.04042675008532,109.14302562503144,109.40622112504207,109.43942187505309,109.43942187505309,109.46983258298133,109.65508916706312,left,0.20380787504836917,None,demo,001,2025-03-24_16h58.34.387,Bonnen2015_2afc,2024.2.4,None,2025-03-24 16h58.40.675932 -0400,
0.2593,0.27,-0.16,105,9,2,left,0.3793821249855682,None,2,9,105,45,109.70303025003523,,,,,,,,,109.6803442920791,109.70303025003523,109.75735591701232,110.00672912504524,110.1073749170173,110.35685287497472,110.40586070797872,110.40586070797872,110.45335945801344,110.78889241698198,left,0.3793821249855682,None,demo,001,2025-03-24_16h58.34.387,Bonnen2015_2afc,2024.2.4,None,2025-03-24 16h58.40.675932 -0400,
0.1045,0.67,-0.02,106,10,2,left,0.2008099580416456,None,2,10,106,35,110.84005408303346,,,,,,,,,110.8167695000302,110.84005408303346,110.89545054198243,111.15612308308482,111.23923325003125,111.49053666705731,111.53924279205967,111.53924279205967,111.58664283307735,111.74145770806354,left,0.2008099580416456,None,demo,001,2025-03-24_16h58.34.387,Bonnen2015_2afc,2024.2.4,None,2025-03-24 16h58.40.675932 -0400,
1.0,0.07,0.04,107,11,2,right,0.1523307500174269,None,2,11,107,16,111.7904807080049,,,,,,,,,111.76623920805287,111.7904807080049,111.84302666701842,112.106103542028,112.20729012507945,112.47357758297585,112.50872091704514,112.50872091704514,112.53705799998716,112.67150095803663,right,0.1523307500174269,None,demo,001,2025-03-24_16h58.34.387,Bonnen2015_2afc,2024.2.4,None,2025-03-24 16h58.40.675932 -0400,
0.1489,0.47,0.005,108,12,2,left,0.8619288749760017,None,2,12,108,6,112.7168558749836,,,,,,,,,112.69527062505949,112.7168558749836,112.78399733302649,113.0437578749843,113.12561116705183,113.38976366701536,113.42304687504657,113.42304687504657,113.4698598330142,114.28926200000569,left,0.8619288749760017,None,demo,001,2025-03-24_16h58.34.387,Bonnen2015_2afc,2024.2.4,None,2025-03-24 16h58.40.675932 -0400,
0.2593,0.27,-0.01,109,13,2,right,0.6715046669123694,None,2,13,109,29,114.34449087502435,,,,,,,,,114.32041225000285,114.34449087502435,114.3999983749818,114.65952695801388,114.74280474998523,115.00596191699151,115.03929583297577,115.03929583297577,115.1031874170294,115.72220337507315,right,0.6715046669123694,None,demo,001,2025-03-24_16h58.34.387,Bonnen2015_2afc,2024.2.4,None,2025-03-24 16h58.40.675932 -0400,
1.0,0.07,0.16,110,14,2,right,0.1521766660735011,None,2,14,110,24,115.77596241701394,,,,,,,,,115.75218858302105,115.77596241701394,115.83172020805068,116.0929753750097,116.17419775004964,116.42637458303943,116.47477049997542,116.47477049997542,116.53661579207983,116.63763320806902,right,0.1521766660735011,None,demo,001,2025-03-24_16h58.34.387,Bonnen2015_2afc,2024.2.4,None,2025-03-24 16h58.40.675932 -0400,
0.1489,0.47,0.01,111,15,2,left,0.43460391694679856,None,2,15,111,10,116.6809605830349,,,,,,,,,116.66011754202191,116.6809605830349,116.7486829169793,117.0084547920851,117.08996845805086,117.33959554205649,117.38979875005316,117.38979875005316,117.43662495806348,117.83838587498758,left,0.43460391694679856,None,demo,001,2025-03-24_16h58.34.387,Bonnen2015_2afc,2024.2.4,None,2025-03-24 16h58.40.675932 -0400,
0.1489,0.47,0.08,112,16,2,right,0.1379734999500215,None,2,16,112,22,117.88998987502418,,,,,,,,,117.86724858300295,117.88998987502418,117.94455887505319,118.2077509170631,118.28977191704325,118.53951741708443,118.5897920000134,118.5897920000134,118.63624004204758,118.73844700003974,right,0.1379734999500215,None,demo,001,2025-03-24_16h58.34.387,Bonnen2015_2afc,2024.2.4,None,2025-03-24 16h58.40.675932 -0400,
0.1045,0.67,0.005,113,17,2,left,0.3423604998970404,None,2,17,113,7,118.78144354198594,,,,,,,,,118.76075366698205,118.78144354198594,118.8489696669858,119.10999450006057,119.1903587920824,119.43947870808188,119.48962016706355,119.48962016706355,119.53643029206432,119.83876608300488,left,0.3423604998970404,None,demo,001,2025-03-24_16h58.34.387,Bonnen2015_2afc,2024.2.4,None,2025-03-24 16h58.40.675932 -0400,
0.1489,0.47,-0.02,114,18,2,left,0.3157344590872526,None,2,18,114,34,119.88972120801918,,,,,,,,,119.8665134999901,119.88972120801918,119.9548872919986,120.2063217080431,120.29034179204609,120.5395128329983,120.59038562502246,120.59038562502246,120.63664458307903,120.90833579201717,left,0.3157344590872526,None,demo,001,2025-03-24_16h58.34.387,Bonnen2015_2afc,2024.2.4,None,2025-03-24 16h58.40.675932 -0400,
0.2593,0.27,0.0,115,19,2,right,0.30095141602214426,None,2,19,115,1,120.95742141699884,,,,,,,,,120.93459070799872,120.95742141699884,121.01035466697067,121.27278487500735,121.3735939579783,121.63976020808332,121.67283475003205,121.67283475003205,121.70314787502866,121.97527920803986,right,0.30095141602214426,None,demo,001,2025-03-24_16h58.34.387,Bonnen2015_2afc,2024.2.4,None,2025-03-24 16h58.40.675932 -0400,
1.0,0.07,-0.16,116,20,2,left,0.2528705840231851,None,2,20,116,44,122.02711150003597,,,,,,,,,122.00150220806245,122.02711150003597,122.08082395803649,122.34188387508038,122.43987116706558,122.68963437504135,122.73945391702,122.73945391702,122.78655837499537,123.0051297500031,left,0.2528705840231851,None,demo,001,2025-03-24_16h58.34.387,Bonnen2015_2afc,2024.2.4,None,2025-03-24 16h58.40.675932 -0400,
0.1045,0.67,-0.16,117,21,2,left,0.24383754190057516,None,2,21,117,47,123.05524400004651,,,,,,,,,123.03161195805296,123.05524400004651,123.1080385830719,123.37312662508339,123.45621391700115,123.70828787505161,123.756439083023,123.756439083023,123.80318458308466,124.00539620802738,left,0.24383754190057516,None,demo,001,2025-03-24_16h58.34.387,Bonnen2015_2afc,2024.2.4,None,2025-03-24 16h58.40.675932 -0400,
0.1045,0.67,0.16,118,22,2,right,0.20999812497757375,None,2,22,118,27,124.05488854204305,,,,,,,,,124.03123662504368,124.05488854204305,124.10820320807397,124.35799479205161,124.4572841670597,124.70550854201429,124.75675204198342,124.75675204198342,124.80328104202636,124.97174170799553,right,0.20999812497757375,None,demo,001,2025-03-24_16h58.34.387,Bonnen2015_2afc,2024.2.4,None,2025-03-24 16h58.40.675932 -0400,
0.2593,0.27,-0.02,119,23,2,left,0.1737322499975562,None,2,23,119,33,125.01836445799563,,,,,,,,,124.99631700001191,125.01836445799563,125.08673658303451,125.34600866702385,125.42656733305193,125.68948408297729,125.72335395799018,125.72335395799018,125.76993170799688,125.90515283297282,left,0.1737322499975562,None,demo,001,2025-03-24_16h58.34.387,Bonnen2015_2afc,2024.2.4,None,2025-03-24 16h58.40.675932 -0400,
0.1045,0.67,0.04,120,24,2,right,0.37490912491921335,None,2,24,120,19,125.95168825006112,,,,,,,,,125.92961112502962,125.95168825006112,126.00625737500377,126.25651204201858,126.35699683299754,126.60764016699977,126.65683845803142,126.65683845803142,126.70318075001705,127.03874112502672,right,0.37490912491921335,None,demo,001,2025-03-24_16h58.34.387,Bonnen2015_2afc,2024.2.4,None,2025-03-24 16h58.40.675932 -0400,
1.0,0.07,0.0,121,25,2,left,0.20472595794126391,None,2,25,121,0,127.09122541698162,,,,,,,,,127.06751183304004,127.09122541698162,127.14823120797519,127.40793795802165,127.48961958300788,127.73989254201297,127.78929162502754,127.78929162502754,127.85324287507683,128.00532350002322,left,0.20472595794126391,None,demo,001,2025-03-24_16h58.34.387,Bonnen2015_2afc,2024.2.4,None,2025-03-24 16h58.40.675932 -0400,
0.2593,0.27,0.02,122,26,2,right,0.19856266700662673,None,2,26,122,13,128.0554715830367,,,,,,,,,128.03231875004712,128.0554715830367,128.10781345807482,128.37289466697257,128.45642866706476,128.7064372500172,128.75840970803984,128.75840970803984,128.80319658305962,128.95904225006234,right,0.19856266700662673,None,demo,001,2025-03-24_16h58.34.387,Bonnen2015_2afc,2024.2.4,None,2025-03-24 16h58.40.675932 -0400,
0.1045,0.67,-0.08,123,27,2,left,0.16931779205333441,None,2,27,123,43,129.00550400000066,,,,,,,,,128.9830433750758,129.00550400000066,129.07403354207054,129.3245208329754,129.42226954200305,129.67236920807045,129.72313458297867,129.72313458297867,129.75326458306517,129.90518683299888,left,0.16931779205333441,None,demo,001,2025-03-24_16h58.34.387,Bonnen2015_2afc,2024.2.4,None,2025-03-24 16h58.40.675932 -0400,
0.1045,0.67,0.01,124,28,2,right,0.21015754097606987,None,2,28,124,11,129.95124362502247,,,,,,,,,129.92895824997686,129.95124362502247,130.02047670807224,130.2768344579963,130.35785033297725,130.62274333299138,130.65548370801844,130.65548370801844,130.703178417054,130.87198558298405,right,0.21015754097606987,None,demo,001,2025-03-24_16h58.34.387,Bonnen2015_2afc,2024.2.4,None,2025-03-24 16h58.40.675932 -0400,
0.1489,0.47,0.16,125,29,2,right,0.17573316697962582,None,2,29,125,26,130.91983954200987,,,,,,,,,130.89732370804995,130.91983954200987,130.97683225001674,131.23964133299887,131.32277087506372,131.5757440420566,131.62360908300616,131.62360908300616,131.66986783302855,131.80505458300468,right,0.17573316697962582,None,demo,001,2025-03-24_16h58.34.387,Bonnen2015_2afc,2024.2.4,None,2025-03-24 16h58.40.675932 -0400,
0.1489,0.47,-0.08,126,30,2,left,0.14493124990258366,None,2,30,126,42,131.850174042047,,,,,,,,,131.8288337920094,131.850174042047,131.9193302920321,132.18087816704065,132.26202941697557,132.5223479170818,132.5563380420208,132.5563380420208,132.6032314579934,132.70500783307943,left,0.14493124990258366,None,demo,001,2025-03-24_16h58.34.387,Bonnen2015_2afc,2024.2.4,None,2025-03-24 16h58.40.675932 -0400,
0.2593,0.27,0.08,127,31,2,right,0.7672718750545755,None,2,31,127,21,132.7487965420587,,,,,,,,,132.72758416703437,132.7487965420587,132.81697520799935,133.07883062504698,133.15820354199968,133.42225354199763,133.45576050004456,133.45576050004456,133.5032747500809,134.22520420805085,right,0.7672718750545755,None,demo,001,2025-03-24_16h58.34.387,Bonnen2015_2afc,2024.2.4,None,2025-03-24 16h58.40.675932 -0400,
0.1045,0.67,-0.04,128,32,2,left,0.17304391704965383,None,2,32,128,39,134.28168200002983,,,,,,,,,134.25694833300076,134.28168200002983,134.34224408306181,134.60649745806586,134.68978533300105,134.94193675008137,134.97435308306012,134.97435308306012,135.0365739580011,135.15491104207467,left,0.17304391704965383,None,demo,001,2025-03-24_16h58.34.387,Bonnen2015_2afc,2024.2.4,None,2025-03-24 16h58.40.675932 -0400,
1.0,0.07,-0.08,129,33,2,left,0.18407575006131083,None,2,33,129,40,135.19899887498468,,,,,,,,,135.177828917047,135.19899887498468,135.26592141704168,135.5253742079949,135.60640258307103,135.85588416701648,135.90620895801112,135.90620895801112,135.95321820804384,136.0913572079735,left,0.18407575006131083,None,demo,001,2025-03-24_16h58.34.387,Bonnen2015_2afc,2024.2.4,None,2025-03-24 16h58.40.675932 -0400,
0.2593,0.27,0.005,130,34,2,right,0.1834782080259174,None,2,34,130,5,136.13657845801208,,,,,,,,,136.11492562503554,136.13657845801208,136.20565720798913,136.4562300000107,136.5567842919845,136.80661141697783,136.85651841701474,136.85651841701474,136.88661175000016,137.04187995800748,right,0.1834782080259174,None,demo,001,2025-03-24_16h58.34.387,Bonnen2015_2afc,2024.2.4,None,2025-03-24 16h58.40.675932 -0400,
0.1489,0.47,0.02,131,35,2,right,0.36681383289396763,None,2,35,131,14,137.08679133304395,,,,,,,,,137.0656712920172,137.08679133304395,137.15962045802735,137.42286929197144,137.50653487502132,137.75665629201103,137.80654379201587,137.80654379201587,137.83658895804547,138.17536712507717,right,0.36681383289396763,None,demo,001,2025-03-24_16h58.34.387,Bonnen2015_2afc,2024.2.4,None,2025-03-24 16h58.40.675932 -0400,
1.0,0.07,0.005,132,36,2,right,0.22273966704960912,None,2,36,132,4,138.22572562505957,,,,,,,,,138.20258645806462,138.22572562505957,138.27942375000566,138.54024662508164,138.63903937500436,138.8906057080021,138.93915866699535,138.93915866699535,138.9868167079985,139.17182933306322,right,0.22273966704960912,None,demo,001,2025-03-24_16h58.34.387,Bonnen2015_2afc,2024.2.4,None,2025-03-24 16h58.40.675932 -0400,
0.1489,0.47,-0.01,133,37,2,right,0.8090695420978591,None,2,37,133,30,139.22072187508456,,,,,,,,,139.197581708082,139.22072187508456,139.2740805830108,139.5398359580431,139.62324187497143,139.87247183301952,139.923469249974,139.923469249974,139.96987491706386,140.73878779204097,right,0.8090695420978591,None,demo,001,2025-03-24_16h58.34.387,Bonnen2015_2afc,2024.2.4,None,2025-03-24 16h58.40.675932 -0400,
0.1489,0.47,-0.04,134,38,2,left,0.13844512507785112,None,2,38,134,38,140.79534937499557,,,,,,,,,140.77060545806307,140.79534937499557,140.85217399999965,141.11335054202937,141.194117542007,141.45618179207668,141.4896357919788,141.4896357919788,141.55315625004005,141.6377768330276,left,0.13844512507785112,None,demo,001,2025-03-24_16h58.34.387,Bonnen2015_2afc,2024.2.4,None,2025-03-24 16h58.40.675932 -0400,
0.1045,0.67,0.0,135,39,2,right,0.2051318329758942,None,2,39,135,3,141.67958966700826,,,,,,,,,141.6597088749986,141.67958966700826,141.74801483307965,142.0095160000492,142.09051250002813,142.3400326250121,142.38959575002082,142.38959575002082,142.43659895798191,142.60503383306786,right,0.2051318329758942,None,demo,001,2025-03-24_16h58.34.387,Bonnen2015_2afc,2024.2.4,None,2025-03-24 16h58.40.675932 -0400,
1.0,0.07,-0.01,136,40,2,left,0.11870108300354332,None,2,40,136,28,142.65246137499344,,,,,,,,,142.630394292064,142.65246137499344,142.7071751250187,142.9583816670347,143.05722312501166,143.3086577920476,143.35776616702788,143.35776616702788,143.40313637501094,143.4880285830004,left,0.11870108300354332,None,demo,001,2025-03-24_16h58.34.387,Bonnen2015_2afc,2024.2.4,None,2025-03-24 16h58.40.675932 -0400,
0.1489,0.47,0.0,137,41,2,left,0.3409278329927474,None,2,41,137,2,143.53171762498096,,,,,,,,,143.5103153330274,143.53171762498096,143.5990993330488,143.86051258305088,143.9419472500449,144.20640254206955,144.23933191702235,144.23933191702235,144.2865359999705,144.5887012500316,left,0.3409278329927474,None,demo,001,2025-03-24_16h58.34.387,Bonnen2015_2afc,2024.2.4,None,2025-03-24 16h58.40.675932 -0400,
0.2593,0.27,0.01,138,42,2,right,0.8101762910373509,None,2,42,138,9,144.63915279204957,,,,,,,,,144.61606279201806,144.63915279204957,144.69466454198118,144.95676687499508,145.04049870802555,145.2896075830795,145.34018108306918,145.34018108306918,145.38653291703667,146.15559679199941,right,0.8101762910373509,None,demo,001,2025-03-24_16h58.34.387,Bonnen2015_2afc,2024.2.4,None,2025-03-24 16h58.40.675932 -0400,
1.0,0.07,-0.02,139,43,2,left,0.11283037497196347,None,2,43,139,32,146.21032091707457,,,,,,,,,146.1858150420012,146.21032091707457,146.2659050830407,146.52762625005562,146.60949604201596,146.8723740830319,146.90553983300924,146.90553983300924,146.96982504206244,147.02118275000248,left,0.11283037497196347,None,demo,001,2025-03-24_16h58.34.387,Bonnen2015_2afc,2024.2.4,None,2025-03-24 16h58.40.675932 -0400,
0.2593,0.27,-0.04,140,44,2,left,0.21329637500457466,None,2,44,140,37,147.0589818750741,,,,,,,,,147.04096800007392,147.0589818750741,147.12513433303684,147.3888206250267,147.4724661250366,147.72236783301923,147.77570441702846,147.77570441702846,147.80320679198485,147.9910474170465,left,0.21329637500457466,None,demo,001,2025-03-24_16h58.34.387,Bonnen2015_2afc,2024.2.4,None,2025-03-24 16h58.40.675932 -0400,
0.1045,0.67,0.02,141,45,2,right,0.28883424995001405,None,2,45,141,15,148.0393096250482,,,,,,,,,148.01633079198655,148.0393096250482,148.09184295800515,148.35852675000206,148.44130425003823,148.70614883303642,148.75544808304403,148.75544808304403,148.7864482080331,149.0546705829911,right,0.28883424995001405,None,demo,001,2025-03-24_16h58.34.387,Bonnen2015_2afc,2024.2.4,None,2025-03-24 16h58.40.675932 -0400,
0.1045,0.67,0.08,142,46,2,right,0.2700422500493005,None,2,46,142,23,149.10436216706876,,,,,,,,,149.08145429205615,149.10436216706876,149.15859945805278,149.42281841707882,149.50797512498684,149.77277008304372,149.8065791670233,149.8065791670233,149.85322304198053,150.08797541703098,right,0.2700422500493005,None,demo,001,2025-03-24_16h58.34.387,Bonnen2015_2afc,2024.2.4,None,2025-03-24 16h58.40.675932 -0400,
0.2593,0.27,0.04,143,47,2,right,0.18413970805704594,None,2,47,143,17,150.13820662500802,,,,,,,,,150.1145682920469,150.13820662500802,150.19159016699996,150.45549437508453,150.5394567080075,150.78979991702363,150.83964633301366,150.83964633301366,150.88646991702262,151.02496850001626,right,0.18413970805704594,None,demo,001,2025-03-24_16h58.34.387,Bonnen2015_2afc,2024.2.4,None,2025-03-24 16h58.40.675932 -0400,
