thisRow.t,notes,begin_experiment.started,text.started,begin_experiment.stopped,staircase.label,staircase.nReps,staircase.startVal,staircase.maxVal,staircase.minVal,staircase.stepSizes,staircase.stepType,staircase.nUp,staircase.nDown,staircase.nReversals,staircase.thisIndex,staircase.thisRepN,staircase.thisN,staircase.direction,staircase.stepSize,staircase.intensity,trial.started,grating.started,grating_test.started,grating.stopped,grating_test.stopped,key_resp.started,text_2.started,trial.stopped,staircase.response,response,participant,session,date,expName,psychopyVersion,frameRate,expStart,
,,0.00789720899774693,0.023005167007795535,0.7188066249946132,,,,,,,,,,,,,,,,,,,,,,,,,,,demo2,001,2025-02-12_23h42.31.971,05-adaptive-methods,2024.2.4,None,2025-02-12 23h42.38.378463 -0500,
0.9345151250017807,,,,,cw,60,10,15,0,"[2, 0.5]",lin,1,2,None,0,1,0,start,2,10,0.9277598339976976,0.9345151250017807,1.3119965000078082,1.4254664170002798,1.812728208999033,1.812728208999033,1.812728208999033,2.208010917005595,1,cw,demo2,001,2025-02-12_23h42.31.971,05-adaptive-methods,2024.2.4,None,2025-02-12 23h42.38.378463 -0500,
2.213369083998259,,,,,hi,6,15,15,15,1,lin,1,2,0,2,1,1,start,1,15,2.208284249994904,2.213369083998259,2.807728166997549,2.7247518340009265,3.3089318749989616,3.3089318749989616,3.3089318749989616,3.708232874996611,1,cw,demo2,001,2025-02-12_23h42.31.971,05-adaptive-methods,2024.2.4,None,2025-02-12 23h42.38.378463 -0500,
3.7225120420043822,,,,,lo,6,-15,-15,-15,1,lin,2,1,0,3,1,2,start,1,-15,3.708512041994254,3.7225120420043822,4.3067916669970145,4.209089958996628,4.792451208995772,4.8067725419969065,4.8067725419969065,5.091475459004869,0,ccw,demo2,001,2025-02-12_23h42.31.971,05-adaptive-methods,2024.2.4,None,2025-02-12 23h42.38.378463 -0500,
5.096764750007424,,,,,ccw,60,-10,0,-15,"[2, 0.5]",lin,2,1,None,1,1,3,start,2,-10,5.091757333997521,5.096764750007424,5.692606374999741,5.607754084005137,6.190105917004985,6.190105917004985,6.190105917004985,6.541749916999834,0,ccw,demo2,001,2025-02-12_23h42.31.971,05-adaptive-methods,2024.2.4,None,2025-02-12 23h42.38.378463 -0500,
6.547347708998132,,,,,hi,6,15,15,15,1,lin,1,2,0,2,2,4,down,1,15,6.5421010840072995,6.547347708998132,7.140088667001692,7.058015999995405,7.625623333995463,7.640082124999026,7.640082124999026,7.840922959003365,1,cw,demo2,001,2025-02-12_23h42.31.971,05-adaptive-methods,2024.2.4,None,2025-02-12 23h42.38.378463 -0500,
7.8463641249982174,,,,,lo,6,-15,-15,-15,1,lin,2,1,0,3,2,5,up,1,-15,7.841180959003395,7.8463641249982174,8.442547250000644,8.344600666998303,8.940111375006381,8.926117459006491,8.926117459006491,9.175028209006996,0,ccw,demo2,001,2025-02-12_23h42.31.971,05-adaptive-methods,2024.2.4,None,2025-02-12 23h42.38.378463 -0500,
9.180221625007107,,,,,ccw,60,-10,0,-15,"[2, 0.5]",lin,2,1,None,1,2,6,up,2,-8,9.175314334002906,9.180221625007107,9.77335783399758,9.67696683399845,10.259233667005901,10.273531917002401,10.273531917002401,10.508268834004411,0,ccw,demo2,001,2025-02-12_23h42.31.971,05-adaptive-methods,2024.2.4,None,2025-02-12 23h42.38.378463 -0500,
10.51301270899421,,,,,cw,60,10,15,0,"[2, 0.5]",lin,1,2,None,0,2,7,down,2,8,10.5085776670021,10.51301270899421,11.107400417007739,11.012534374996903,11.607765916996868,11.607765916996868,11.607765916996868,11.941546166999615,1,cw,demo2,001,2025-02-12_23h42.31.971,05-adaptive-methods,2024.2.4,None,2025-02-12 23h42.38.378463 -0500,
11.946842292003566,,,,,lo,6,-15,-15,-15,1,lin,2,1,0,3,3,8,up,1,-15,11.94182695899508,11.946842292003566,12.540462417004164,12.457827209000243,13.025675124998088,13.040020208994974,13.040020208994974,13.391582875003223,0,ccw,demo2,001,2025-02-12_23h42.31.971,05-adaptive-methods,2024.2.4,None,2025-02-12 23h42.38.378463 -0500,
13.396590792006464,,,,,ccw,60,-10,0,-15,"[2, 0.5]",lin,2,1,None,1,3,9,up,2,-6,13.391887959005544,13.396590792006464,13.990859041994554,13.906903084003716,14.475861875005648,14.489981459002593,14.489981459002593,14.724799500007066,0,ccw,demo2,001,2025-02-12_23h42.31.971,05-adaptive-methods,2024.2.4,None,2025-02-12 23h42.38.378463 -0500,
14.729936375006218,,,,,hi,6,15,15,15,1,lin,1,2,0,2,3,10,down,1,15,14.72509970900137,14.729936375006218,15.325932749998174,15.225336333998712,15.824148500003503,15.824148500003503,15.824148500003503,16.093776541994885,1,cw,demo2,001,2025-02-12_23h42.31.971,05-adaptive-methods,2024.2.4,None,2025-02-12 23h42.38.378463 -0500,
16.106706083999597,,,,,cw,60,10,15,0,"[2, 0.5]",lin,1,2,None,0,3,11,down,2,6,16.0939851669973,16.106706083999597,16.709363709000172,16.607639541995013,17.226586959004635,17.207494417001726,17.207494417001726,17.479290917006438,1,cw,demo2,001,2025-02-12_23h42.31.971,05-adaptive-methods,2024.2.4,None,2025-02-12 23h42.38.378463 -0500,
17.490067417005775,,,,,cw,60,10,15,0,"[2, 0.5]",lin,1,2,None,0,4,12,down,2,4,17.479617542005144,17.490067417005775,18.07692729200062,17.976549917002558,18.573442417007755,18.576081417006208,18.576081417006208,18.89426933400682,1,cw,demo2,001,2025-02-12_23h42.31.971,05-adaptive-methods,2024.2.4,None,2025-02-12 23h42.38.378463 -0500,
18.906786459003342,,,,,ccw,60,-10,0,-15,"[2, 0.5]",lin,2,1,None,1,4,13,up,2,-4,18.894562292000046,18.906786459003342,19.493359125001007,19.407846292000613,19.98999816700234,19.98999816700234,19.98999816700234,20.277444125007605,0,ccw,demo2,001,2025-02-12_23h42.31.971,05-adaptive-methods,2024.2.4,None,2025-02-12 23h42.38.378463 -0500,
20.289938709000126,,,,,lo,6,-15,-15,-15,1,lin,2,1,0,3,4,14,up,1,-15,20.277727541993954,20.289938709000126,20.876320625000517,20.775792750006076,21.390060834004544,21.390060834004544,21.390060834004544,21.641267833998427,0,ccw,demo2,001,2025-02-12_23h42.31.971,05-adaptive-methods,2024.2.4,None,2025-02-12 23h42.38.378463 -0500,
21.644755542001803,,,,,hi,6,15,15,15,1,lin,1,2,0,2,4,15,down,1,15,21.641525458995602,21.644755542001803,22.24070587499591,22.14251466699352,22.725663417004398,22.7400375839934,22.7400375839934,23.008134624993545,1,cw,demo2,001,2025-02-12_23h42.31.971,05-adaptive-methods,2024.2.4,None,2025-02-12 23h42.38.378463 -0500,
23.013331249996554,,,,,lo,6,-15,-15,-15,1,lin,2,1,0,3,5,16,up,1,-15,23.008400459002587,23.013331249996554,23.607479041995248,23.508813167005428,24.092329499995685,24.106709750005393,24.106709750005393,24.376839542004745,0,ccw,demo2,001,2025-02-12_23h42.31.971,05-adaptive-methods,2024.2.4,None,2025-02-12 23h42.38.378463 -0500,
24.38900279199879,,,,,ccw,60,-10,0,-15,"[2, 0.5]",lin,2,1,None,1,5,17,up,2,-2,24.37703791700187,24.38900279199879,24.976930916993297,24.881740541997715,25.47343570900557,25.47343570900557,25.47343570900557,26.058186541995383,1,cw,demo2,001,2025-02-12_23h42.31.971,05-adaptive-methods,2024.2.4,None,2025-02-12 23h42.38.378463 -0500,
26.063495042006252,,,,,cw,60,10,15,0,"[2, 0.5]",lin,1,2,None,0,5,18,down,2,2,26.058560125005897,26.063495042006252,26.65812241700769,26.564968916994985,27.157333666997147,27.157333666997147,27.157333666997147,27.325551917005214,1,cw,demo2,001,2025-02-12_23h42.31.971,05-adaptive-methods,2024.2.4,None,2025-02-12 23h42.38.378463 -0500,
27.330741708996356,,,,,hi,6,15,15,15,1,lin,1,2,0,2,5,19,down,1,15,27.325918125003227,27.330741708996356,27.923950917000184,27.82552883400058,28.40908362499613,28.423386167007266,28.423386167007266,28.594280499994056,1,cw,demo2,001,2025-02-12_23h42.31.971,05-adaptive-methods,2024.2.4,None,2025-02-12 23h42.38.378463 -0500,
28.606781416994636,,,,,lo,6,-15,-15,-15,1,lin,2,1,0,3,6,20,up,1,-15,28.594605584003148,28.606781416994636,29.193769292003708,29.108975708993967,29.692528166997363,29.692528166997363,29.692528166997363,30.77749062499788,0,ccw,demo2,001,2025-02-12_23h42.31.971,05-adaptive-methods,2024.2.4,None,2025-02-12 23h42.38.378463 -0500,
30.78953249999904,,,,,cw,60,10,15,0,"[2, 0.5]",lin,1,2,None,0,6,21,down,2,0,30.777811249994556,30.78953249999904,31.377127041996573,31.275534999993397,31.890961166995112,31.890961166995112,31.890961166995112,32.577651291998336,1,ccw,demo2,001,2025-02-12_23h42.31.971,05-adaptive-methods,2024.2.4,None,2025-02-12 23h42.38.378463 -0500,
32.59012912500475,,,,,hi,6,15,15,15,1,lin,1,2,0,2,6,22,down,1,15,32.5779266669997,32.59012912500475,33.191632917005336,33.092738249994,33.69152937500621,33.69152937500621,33.69152937500621,33.710682292003185,1,cw,demo2,001,2025-02-12_23h42.31.971,05-adaptive-methods,2024.2.4,None,2025-02-12 23h42.38.378463 -0500,
33.723835708995466,,,,,ccw,60,-10,0,-15,"[2, 0.5]",lin,2,1,None,1,6,23,down,0.5,-2.5,33.71102429200255,33.723835708995466,34.311663500004215,34.22380091699597,34.82578625000315,34.82578625000315,34.82578625000315,35.09355545899598,0,ccw,demo2,001,2025-02-12_23h42.31.971,05-adaptive-methods,2024.2.4,None,2025-02-12 23h42.38.378463 -0500,
35.10670358399511,,,,,cw,60,10,15,0,"[2, 0.5]",lin,1,2,None,0,7,24,down,2,0,35.09380266700464,35.10670358399511,35.6939298340003,35.59219191700686,36.19248691700341,36.19248691700341,36.19248691700341,36.47491612500744,0,cw,demo2,001,2025-02-12_23h42.31.971,05-adaptive-methods,2024.2.4,None,2025-02-12 23h42.38.378463 -0500,
36.48032416700153,,,,,ccw,60,-10,0,-15,"[2, 0.5]",lin,2,1,None,1,7,25,down,0.5,-2.5,36.47522529200069,36.48032416700153,37.07342724999762,36.97551312499854,37.561812333995476,37.57342504200642,37.57342504200642,37.791299417003756,0,ccw,demo2,001,2025-02-12_23h42.31.971,05-adaptive-methods,2024.2.4,None,2025-02-12 23h42.38.378463 -0500,
37.79627912500291,,,,,lo,6,-15,-15,-15,1,lin,2,1,0,3,7,26,up,1,-15,37.79152774999966,37.79627912500291,38.3900762090052,38.293094499997096,38.88005620900367,38.89006141699792,38.89006141699792,39.0581674999994,0,ccw,demo2,001,2025-02-12_23h42.31.971,05-adaptive-methods,2024.2.4,None,2025-02-12 23h42.38.378463 -0500,
39.06351891699887,,,,,hi,6,15,15,15,1,lin,1,2,0,2,7,27,down,1,15,39.05855683400296,39.06351891699887,39.658203500002855,39.55909020900435,40.156802500001504,40.156802500001504,40.156802500001504,40.375448459002655,1,cw,demo2,001,2025-02-12_23h42.31.971,05-adaptive-methods,2024.2.4,None,2025-02-12 23h42.38.378463 -0500,
40.39034937499673,,,,,ccw,60,-10,0,-15,"[2, 0.5]",lin,2,1,None,1,8,28,up,0.5,-2.0,40.375748749997,40.39034937499673,40.99123050000344,40.891312209001626,41.49181716699968,41.4748948750057,41.4748948750057,41.660841834003804,1,cw,demo2,001,2025-02-12_23h42.31.971,05-adaptive-methods,2024.2.4,None,2025-02-12 23h42.38.378463 -0500,
41.67347245900601,,,,,cw,60,10,15,0,"[2, 0.5]",lin,1,2,None,0,8,29,up,0.5,0.5,41.660986874994705,41.67347245900601,42.256763833996956,42.15913791699859,42.744656875001965,42.75626791700779,42.75626791700779,42.824538041997585,0,ccw,demo2,001,2025-02-12_23h42.31.971,05-adaptive-methods,2024.2.4,None,2025-02-12 23h42.38.378463 -0500,
42.82935479200387,,,,,ccw,60,-10,0,-15,"[2, 0.5]",lin,2,1,None,1,9,30,down,0.5,-2.5,42.82475733400497,42.82935479200387,43.42341416700219,43.326012459001504,43.91227600000275,43.91227600000275,43.91227600000275,44.20804133400088,1,cw,demo2,001,2025-02-12_23h42.31.971,05-adaptive-methods,2024.2.4,None,2025-02-12 23h42.38.378463 -0500,
44.2130420839967,,,,,cw,60,10,15,0,"[2, 0.5]",lin,1,2,None,0,9,31,up,0.5,1.0,44.20827204200032,44.2130420839967,44.80810420900525,44.70904029200028,45.307398834003834,45.307398834003834,45.307398834003834,45.77482087499811,0,ccw,demo2,001,2025-02-12_23h42.31.971,05-adaptive-methods,2024.2.4,None,2025-02-12 23h42.38.378463 -0500,
45.77990612499707,,,,,cw,60,10,15,0,"[2, 0.5]",lin,1,2,None,0,10,32,up,0.5,1.5,45.7751529590023,45.77990612499707,46.375076291995356,46.278126292003435,46.87915150000481,46.87915150000481,46.87915150000481,46.97489599999972,1,cw,demo2,001,2025-02-12_23h42.31.971,05-adaptive-methods,2024.2.4,None,2025-02-12 23h42.38.378463 -0500,
46.97969008400105,,,,,ccw,60,-10,0,-15,"[2, 0.5]",lin,2,1,None,1,10,33,down,0.5,-3.0,46.97517020899977,46.97969008400105,47.573393833998125,47.47651870899426,48.0743981669948,48.0743981669948,48.0743981669948,48.224852750005084,0,ccw,demo2,001,2025-02-12_23h42.31.971,05-adaptive-methods,2024.2.4,None,2025-02-12 23h42.38.378463 -0500,
48.229902874998515,,,,,ccw,60,-10,0,-15,"[2, 0.5]",lin,2,1,None,1,11,34,down,0.5,-3.0,48.22518804199353,48.229902874998515,48.82351375000144,48.74134658400726,49.30898629200237,49.323443917004624,49.323443917004624,49.44258825000725,0,ccw,demo2,001,2025-02-12_23h42.31.971,05-adaptive-methods,2024.2.4,None,2025-02-12 23h42.38.378463 -0500,
49.457094958997914,,,,,cw,60,10,15,0,"[2, 0.5]",lin,1,2,None,0,11,35,up,0.5,1.5,49.442979375002324,49.457094958997914,50.05780904200219,49.942550709005445,50.55902095900092,50.55902095900092,50.55902095900092,50.82696808400215,0,ccw,demo2,001,2025-02-12_23h42.31.971,05-adaptive-methods,2024.2.4,None,2025-02-12 23h42.38.378463 -0500,
50.831994209002005,,,,,cw,60,10,15,0,"[2, 0.5]",lin,1,2,None,0,12,36,up,0.5,2.0,50.82727020900347,50.831994209002005,51.42485804199532,51.32599112500611,51.92480550000619,51.94133425000473,51.94133425000473,52.093857583997305,1,cw,demo2,001,2025-02-12_23h42.31.971,05-adaptive-methods,2024.2.4,None,2025-02-12 23h42.38.378463 -0500,
52.107133708996116,,,,,ccw,60,-10,0,-15,"[2, 0.5]",lin,2,1,None,1,12,37,up,0.5,-2.5,52.09415170899592,52.107133708996116,52.70756491700013,52.607985791997635,53.19747483399988,53.19747483399988,53.19747483399988,53.57498079200741,0,ccw,demo2,001,2025-02-12_23h42.31.971,05-adaptive-methods,2024.2.4,None,2025-02-12 23h42.38.378463 -0500,
53.58038050000323,,,,,cw,60,10,15,0,"[2, 0.5]",lin,1,2,None,0,13,38,up,0.5,2.0,53.57528775000537,53.58038050000323,54.17406641700654,54.07780037500197,54.65929204199347,54.67336341699411,54.67336341699411,54.82518699999491,1,cw,demo2,001,2025-02-12_23h42.31.971,05-adaptive-methods,2024.2.4,None,2025-02-12 23h42.38.378463 -0500,
54.83109066699399,,,,,ccw,60,-10,0,-15,"[2, 0.5]",lin,2,1,None,1,13,39,up,0.5,-2.5,54.82565629199962,54.83109066699399,55.424583458996494,55.341339292004704,55.9235203749995,55.9235203749995,55.9235203749995,56.52583450000384,0,ccw,demo2,001,2025-02-12_23h42.31.971,05-adaptive-methods,2024.2.4,None,2025-02-12 23h42.38.378463 -0500,
56.54042508400744,,,,,ccw,60,-10,0,-15,"[2, 0.5]",lin,2,1,None,1,14,40,up,0.5,-2.0,56.5261723750009,56.54042508400744,57.12443529200391,57.04016600000614,57.62452704200405,57.6410605419951,57.6410605419951,58.07492570900649,1,cw,demo2,001,2025-02-12_23h42.31.971,05-adaptive-methods,2024.2.4,None,2025-02-12 23h42.38.378463 -0500,
58.08076366700698,,,,,cw,60,10,15,0,"[2, 0.5]",lin,1,2,None,0,14,41,down,0.5,1.5,58.07533533399692,58.08076366700698,58.67672904199571,58.57797587499954,59.17345995899814,59.17345995899814,59.17345995899814,59.42487912499928,1,cw,demo2,001,2025-02-12_23h42.31.971,05-adaptive-methods,2024.2.4,None,2025-02-12 23h42.38.378463 -0500,
59.429981958994176,,,,,ccw,60,-10,0,-15,"[2, 0.5]",lin,2,1,None,1,15,42,down,0.5,-2.5,59.42515741700481,59.429981958994176,60.013097874994855,59.94083474999934,60.52493058399705,60.52493058399705,60.52493058399705,60.841423792007845,0,ccw,demo2,001,2025-02-12_23h42.31.971,05-adaptive-methods,2024.2.4,None,2025-02-12 23h42.38.378463 -0500,
60.84690324999974,,,,,cw,60,10,15,0,"[2, 0.5]",lin,1,2,None,0,15,43,down,0.5,1.5,60.841686583997216,60.84690324999974,61.44022091700754,61.342485750006745,61.925731584007735,61.94006850000005,61.94006850000005,62.17510808400402,1,cw,demo2,001,2025-02-12_23h42.31.971,05-adaptive-methods,2024.2.4,None,2025-02-12 23h42.38.378463 -0500,
62.18085508400691,,,,,cw,60,10,15,0,"[2, 0.5]",lin,1,2,None,0,16,44,down,0.5,1.0,62.17547450000711,62.18085508400691,62.775222334006685,62.69067850000283,63.27446945900738,63.27446945900738,63.27446945900738,63.491095083998516,1,cw,demo2,001,2025-02-12_23h42.31.971,05-adaptive-methods,2024.2.4,None,2025-02-12 23h42.38.378463 -0500,
63.494563375003054,,,,,ccw,60,-10,0,-15,"[2, 0.5]",lin,2,1,None,1,16,45,down,0.5,-2.5,63.49135120899882,63.494563375003054,64.08023575000698,63.99008862499613,64.59084733399504,64.59084733399504,64.59084733399504,64.74495866699726,0,ccw,demo2,001,2025-02-12_23h42.31.971,05-adaptive-methods,2024.2.4,None,2025-02-12 23h42.38.378463 -0500,
64.75674425000034,,,,,ccw,60,-10,0,-15,"[2, 0.5]",lin,2,1,None,1,17,46,up,0.5,-2.0,64.74524550000206,64.75674425000034,65.34591741699842,65.24225408400525,65.84231879199797,65.84231879199797,65.84231879199797,66.12690895900596,0,ccw,demo2,001,2025-02-12_23h42.31.971,05-adaptive-methods,2024.2.4,None,2025-02-12 23h42.38.378463 -0500,
66.14056579199678,,,,,cw,60,10,15,0,"[2, 0.5]",lin,1,2,None,0,17,47,down,0.5,1.0,66.12723708400154,66.14056579199678,66.72335200000089,66.64062670900603,67.2107673749997,67.22353866700723,67.22353866700723,67.32991854200372,1,cw,demo2,001,2025-02-12_23h42.31.971,05-adaptive-methods,2024.2.4,None,2025-02-12 23h42.38.378463 -0500,
67.340006583996,,,,,ccw,60,-10,0,-15,"[2, 0.5]",lin,2,1,None,1,18,48,up,0.5,-2.0,67.33028745900083,67.340006583996,67.94098079200194,67.82907616700686,68.4425917500048,68.4425917500048,68.4425917500048,68.64127220900264,0,ccw,demo2,001,2025-02-12_23h42.31.971,05-adaptive-methods,2024.2.4,None,2025-02-12 23h42.38.378463 -0500,
68.64638454200758,,,,,cw,60,10,15,0,"[2, 0.5]",lin,1,2,None,0,18,49,down,0.5,0.5,68.64154374999634,68.64638454200758,69.24003899999661,69.14014929199766,69.72560395899927,69.73999108400312,69.73999108400312,69.96050583399483,0,ccw,demo2,001,2025-02-12_23h42.31.971,05-adaptive-methods,2024.2.4,None,2025-02-12 23h42.38.378463 -0500,
69.973712084,,,,,ccw,60,-10,0,-15,"[2, 0.5]",lin,2,1,None,1,19,50,up,0.5,-1.5,69.96082758400007,69.973712084,70.55715541700192,70.47467670899641,71.0427335419954,71.06257833400741,71.06257833400741,71.36459212499904,1,cw,demo2,001,2025-02-12_23h42.31.971,05-adaptive-methods,2024.2.4,None,2025-02-12 23h42.38.378463 -0500,
71.37287812499562,,,,,cw,60,10,15,0,"[2, 0.5]",lin,1,2,None,0,19,51,up,0.5,1.0,71.36483604200475,71.37287812499562,71.97455483399972,71.85886991700681,72.46063287499419,72.46063287499419,72.46063287499419,72.72872633399675,1,cw,demo2,001,2025-02-12_23h42.31.971,05-adaptive-methods,2024.2.4,None,2025-02-12 23h42.38.378463 -0500,
72.74008845900244,,,,,cw,60,10,15,0,"[2, 0.5]",lin,1,2,None,0,20,52,up,0.5,1.0,72.72906362499634,72.74008845900244,73.34059375000652,73.24075591699511,73.84175474999938,73.84175474999938,73.84175474999938,73.99362537500565,1,cw,demo2,001,2025-02-12_23h42.31.971,05-adaptive-methods,2024.2.4,None,2025-02-12 23h42.38.378463 -0500,
74.00973350000277,,,,,ccw,60,-10,0,-15,"[2, 0.5]",lin,2,1,None,1,20,53,down,0.5,-2.0,73.9939067499945,74.00973350000277,74.60781091700483,74.52448012499372,75.10737904200505,75.10737904200505,75.10737904200505,75.64174633400398,1,cw,demo2,001,2025-02-12_23h42.31.971,05-adaptive-methods,2024.2.4,None,2025-02-12 23h42.38.378463 -0500,
75.64747679200082,,,,,cw,60,10,15,0,"[2, 0.5]",lin,1,2,None,0,21,54,down,0.5,0.5,75.64217908399587,75.64747679200082,76.24157320900122,76.14236029199674,76.74131266699987,76.74131266699987,76.74131266699987,77.04132975000539,0,ccw,demo2,001,2025-02-12_23h42.31.971,05-adaptive-methods,2024.2.4,None,2025-02-12 23h42.38.378463 -0500,
77.0466139170021,,,,,ccw,60,-10,0,-15,"[2, 0.5]",lin,2,1,None,1,21,55,down,0.5,-2.5,77.04163525000331,77.0466139170021,77.64000470899919,77.54011825000634,78.12578299999586,78.1399965419987,78.1399965419987,78.30838170899369,0,ccw,demo2,001,2025-02-12_23h42.31.971,05-adaptive-methods,2024.2.4,None,2025-02-12 23h42.38.378463 -0500,
78.31375991700043,,,,,cw,60,10,15,0,"[2, 0.5]",lin,1,2,None,0,22,56,up,0.5,1.0,78.30873895900731,78.31375991700043,78.90665129199624,78.81029320899688,79.40922154199507,79.40922154199507,79.40922154199507,79.52648608399613,1,cw,demo2,001,2025-02-12_23h42.31.971,05-adaptive-methods,2024.2.4,None,2025-02-12 23h42.38.378463 -0500,
79.54036504200485,,,,,ccw,60,-10,0,-15,"[2, 0.5]",lin,2,1,None,1,22,57,down,0.5,-2.5,79.52675624999392,79.54036504200485,80.14106870899559,80.02627237500565,80.64088550000452,80.64088550000452,80.64088550000452,80.88731004200235,0,ccw,demo2,001,2025-02-12_23h42.31.971,05-adaptive-methods,2024.2.4,None,2025-02-12 23h42.38.378463 -0500,
80.89207095900201,,,,,cw,60,10,15,0,"[2, 0.5]",lin,1,2,None,0,23,58,up,0.5,1.0,80.88763691700296,80.89207095900201,81.47643420900567,81.3908319589973,81.99113341700286,81.99113341700286,81.99113341700286,82.1607378339977,1,cw,demo2,001,2025-02-12_23h42.31.971,05-adaptive-methods,2024.2.4,None,2025-02-12 23h42.38.378463 -0500,
82.17336429200077,,,,,ccw,60,-10,0,-15,"[2, 0.5]",lin,2,1,None,1,23,59,up,0.5,-2.0,82.16109091699764,82.17336429200077,82.77501766699424,82.66241962500499,83.27482975000748,83.27482975000748,83.27482975000748,83.49407120900287,1,cw,demo2,001,2025-02-12_23h42.31.971,05-adaptive-methods,2024.2.4,None,2025-02-12 23h42.38.378463 -0500,
83.50666149999597,,,,,cw,60,10,15,0,"[2, 0.5]",lin,1,2,None,0,24,60,down,0.5,0.5,83.49429758399492,83.50666149999597,84.10738379199756,84.00750599999446,84.60757729200122,84.60757729200122,84.60757729200122,84.87419320900517,0,ccw,demo2,001,2025-02-12_23h42.31.971,05-adaptive-methods,2024.2.4,None,2025-02-12 23h42.38.378463 -0500,
84.87930920900544,,,,,ccw,60,-10,0,-15,"[2, 0.5]",lin,2,1,None,1,24,61,down,0.5,-2.5,84.87444220899488,84.87930920900544,85.45903154200641,85.37345804199867,85.95669679199636,85.95925533400441,85.95925533400441,86.15994670899818,0,ccw,demo2,001,2025-02-12_23h42.31.971,05-adaptive-methods,2024.2.4,None,2025-02-12 23h42.38.378463 -0500,
86.17621354199946,,,,,cw,60,10,15,0,"[2, 0.5]",lin,1,2,None,0,25,62,up,0.5,1.0,86.16023824999866,86.17621354199946,86.7577551669965,86.69118558400078,87.25629770899832,87.25629770899832,87.25629770899832,87.44283720900421,1,cw,demo2,001,2025-02-12_23h42.31.971,05-adaptive-methods,2024.2.4,None,2025-02-12 23h42.38.378463 -0500,
87.45702408399666,,,,,ccw,60,-10,0,-15,"[2, 0.5]",lin,2,1,None,1,25,63,down,0.5,-2.5,87.44313116700505,87.45702408399666,88.05733179200615,87.94445729200379,88.54386166699987,88.54016366699943,88.54016366699943,88.72487254200678,0,ccw,demo2,001,2025-02-12_23h42.31.971,05-adaptive-methods,2024.2.4,None,2025-02-12 23h42.38.378463 -0500,
88.73049933400762,,,,,ccw,60,-10,0,-15,"[2, 0.5]",lin,2,1,None,1,26,64,up,0.5,-2.0,88.725217625004,88.73049933400762,89.32338795899705,89.24124383399612,89.82428637500561,89.82428637500561,89.82428637500561,89.99150699999882,1,cw,demo2,001,2025-02-12_23h42.31.971,05-adaptive-methods,2024.2.4,None,2025-02-12 23h42.38.378463 -0500,
89.99678595899604,,,,,cw,60,10,15,0,"[2, 0.5]",lin,1,2,None,0,26,65,up,0.5,1.0,89.99178895899968,89.99678595899604,90.59318533400074,90.49205879200599,91.10783254199487,91.0906509589986,91.0906509589986,91.25940283399541,1,cw,demo2,001,2025-02-12_23h42.31.971,05-adaptive-methods,2024.2.4,None,2025-02-12 23h42.38.378463 -0500,
91.27375629199378,,,,,cw,60,10,15,0,"[2, 0.5]",lin,1,2,None,0,27,66,down,0.5,0.5,91.25973820900253,91.27375629199378,91.85682287499367,91.7751538750017,92.35736395900312,92.3624697500054,92.3624697500054,92.54146575000777,0,ccw,demo2,001,2025-02-12_23h42.31.971,05-adaptive-methods,2024.2.4,None,2025-02-12 23h42.38.378463 -0500,
92.54673970899603,,,,,ccw,60,-10,0,-15,"[2, 0.5]",lin,2,1,None,1,27,67,down,0.5,-2.5,92.5417277499946,92.54673970899603,93.14002308399358,93.04226066700357,93.64151154199499,93.64151154199499,93.64151154199499,93.8246227089985,1,cw,demo2,001,2025-02-12_23h42.31.971,05-adaptive-methods,2024.2.4,None,2025-02-12 23h42.38.378463 -0500,
93.82972120899649,,,,,cw,60,10,15,0,"[2, 0.5]",lin,1,2,None,0,28,68,up,0.5,1.0,93.82489029200224,93.82972120899649,94.42341591700097,94.33099625000614,94.90897237500758,94.92338399999426,94.92338399999426,95.14250058399921,1,cw,demo2,001,2025-02-12_23h42.31.971,05-adaptive-methods,2024.2.4,None,2025-02-12 23h42.38.378463 -0500,
95.14771758399729,,,,,ccw,60,-10,0,-15,"[2, 0.5]",lin,2,1,None,1,28,69,down,0.5,-3.0,95.14283687500574,95.14771758399729,95.75831266700698,95.6569953750004,96.25677649999852,96.2399897090072,96.2399897090072,96.39127987499523,0,ccw,demo2,001,2025-02-12_23h42.31.971,05-adaptive-methods,2024.2.4,None,2025-02-12 23h42.38.378463 -0500,
96.39654379199783,,,,,cw,60,10,15,0,"[2, 0.5]",lin,1,2,None,0,29,70,up,0.5,1.0,96.39156395899772,96.39654379199783,96.99070254199614,96.89525333400525,97.47536333400058,97.48996624999563,97.48996624999563,97.79208174999803,1,cw,demo2,001,2025-02-12_23h42.31.971,05-adaptive-methods,2024.2.4,None,2025-02-12 23h42.38.378463 -0500,
97.80674529200769,,,,,ccw,60,-10,0,-15,"[2, 0.5]",lin,2,1,None,1,29,71,down,0.5,-3.0,97.79241437499877,97.80674529200769,98.40775212500012,98.29262358399865,98.89382608400774,98.8900856669934,98.8900856669934,99.05821441700391,0,ccw,demo2,001,2025-02-12_23h42.31.971,05-adaptive-methods,2024.2.4,None,2025-02-12 23h42.38.378463 -0500,
99.06355925000389,,,,,cw,60,10,15,0,"[2, 0.5]",lin,1,2,None,0,30,72,down,0.5,0.5,99.0585969590029,99.06355925000389,99.6578621249937,99.5589845420036,100.15667254199798,100.15667254199798,100.15667254199798,100.31089904200053,1,cw,demo2,001,2025-02-12_23h42.31.971,05-adaptive-methods,2024.2.4,None,2025-02-12 23h42.38.378463 -0500,
100.32590058399364,,,,,ccw,60,-10,0,-15,"[2, 0.5]",lin,2,1,None,1,30,73,up,0.5,-2.5,100.31118045900075,100.32590058399364,100.92401054200309,100.82465745900117,101.42394933399919,101.42394933399919,101.42394933399919,101.61470820900286,0,ccw,demo2,001,2025-02-12_23h42.31.971,05-adaptive-methods,2024.2.4,None,2025-02-12 23h42.38.378463 -0500,
101.62344262500119,,,,,ccw,60,-10,0,-15,"[2, 0.5]",lin,2,1,None,1,31,74,up,0.5,-2.5,101.61504412500653,101.62344262500119,102.21321650000755,102.12426512500679,102.71280283399392,102.71280283399392,102.71280283399392,103.29377279200708,0,ccw,demo2,001,2025-02-12_23h42.31.971,05-adaptive-methods,2024.2.4,None,2025-02-12 23h42.38.378463 -0500,
103.30670679200557,,,,,cw,60,10,15,0,"[2, 0.5]",lin,1,2,None,0,31,75,down,0.5,0.5,103.29405266699905,103.30670679200557,103.89361691700469,103.8077306250052,104.40712241700385,104.40712241700385,104.40712241700385,104.44383666700742,1,cw,demo2,001,2025-02-12_23h42.31.971,05-adaptive-methods,2024.2.4,None,2025-02-12 23h42.38.378463 -0500,
104.45672558399383,,,,,ccw,60,-10,0,-15,"[2, 0.5]",lin,2,1,None,1,32,76,up,0.5,-2.0,104.44408045899763,104.45672558399383,105.04347495900583,104.95746545899601,105.53997958400578,105.53997958400578,105.53997958400578,105.71271912500379,0,ccw,demo2,001,2025-02-12_23h42.31.971,05-adaptive-methods,2024.2.4,None,2025-02-12 23h42.38.378463 -0500,
105.72337633400457,,,,,cw,60,10,15,0,"[2, 0.5]",lin,1,2,None,0,32,77,down,0.5,0.0,105.71307045899448,105.72337633400457,106.32409049999842,106.2093032499979,106.80963916699693,106.80963916699693,106.80963916699693,106.8939458340028,0,cw,demo2,001,2025-02-12_23h42.31.971,05-adaptive-methods,2024.2.4,None,2025-02-12 23h42.38.378463 -0500,
106.90919862499868,,,,,cw,60,10,15,0,"[2, 0.5]",lin,1,2,None,0,33,78,up,0.5,0.5,106.89432379200298,106.90919862499868,107.49491545899946,107.42411016700498,108.00699224999698,108.00699224999698,108.00699224999698,108.14134029200068,1,cw,demo2,001,2025-02-12_23h42.31.971,05-adaptive-methods,2024.2.4,None,2025-02-12 23h42.38.378463 -0500,
108.14681633400323,,,,,ccw,60,-10,0,-15,"[2, 0.5]",lin,2,1,None,1,33,79,up,0.5,-2.0,108.14165266700729,108.14681633400323,108.74004791700281,108.64245404199755,109.22915195900714,109.22915195900714,109.22915195900714,109.30822912500298,0,ccw,demo2,001,2025-02-12_23h42.31.971,05-adaptive-methods,2024.2.4,None,2025-02-12 23h42.38.378463 -0500,
109.31378174999554,,,,,ccw,60,-10,0,-15,"[2, 0.5]",lin,2,1,None,1,34,80,up,0.5,-1.5,109.30867479200242,109.31378174999554,109.90696883399505,109.8096809169947,110.40841175000241,110.40841175000241,110.40841175000241,110.71069383400027,0,ccw,demo2,001,2025-02-12_23h42.31.971,05-adaptive-methods,2024.2.4,None,2025-02-12 23h42.38.378463 -0500,
110.7234087090037,,,,,cw,60,10,15,0,"[2, 0.5]",lin,1,2,None,0,34,81,up,0.5,0.5,110.71097879200533,110.7234087090037,111.3097200839984,111.22355824999977,111.8239182499965,111.8239182499965,111.8239182499965,111.87596583399863,0,ccw,demo2,001,2025-02-12_23h42.31.971,05-adaptive-methods,2024.2.4,None,2025-02-12 23h42.38.378463 -0500,
111.89256066699454,,,,,cw,60,10,15,0,"[2, 0.5]",lin,1,2,None,0,35,82,up,0.5,1.0,111.87635879199661,111.89256066699454,112.47334712500742,112.39154579199385,112.95919350000622,112.97350045900384,112.97350045900384,113.06166712500271,1,cw,demo2,001,2025-02-12_23h42.31.971,05-adaptive-methods,2024.2.4,None,2025-02-12 23h42.38.378463 -0500,
113.0733237920067,,,,,ccw,60,-10,0,-15,"[2, 0.5]",lin,2,1,None,1,35,83,up,0.5,-1.5,113.06195883400505,113.0733237920067,113.67448916699504,113.57404570899962,114.17411558399908,114.17411558399908,114.17411558399908,114.29234995899606,0,ccw,demo2,001,2025-02-12_23h42.31.971,05-adaptive-methods,2024.2.4,None,2025-02-12 23h42.38.378463 -0500,
114.30714958399767,,,,,ccw,60,-10,0,-15,"[2, 0.5]",lin,2,1,None,1,36,84,up,0.5,-1.0,114.29268724999565,114.30714958399767,114.89043062500423,114.81022420899535,115.39121000000159,115.40742187500291,115.40742187500291,115.76027858399902,0,ccw,demo2,001,2025-02-12_23h42.31.971,05-adaptive-methods,2024.2.4,None,2025-02-12 23h42.38.378463 -0500,
115.77332833400578,,,,,cw,60,10,15,0,"[2, 0.5]",lin,1,2,None,0,36,85,up,0.5,1.0,115.76047966700571,115.77332833400578,116.36446387499745,116.27440241699514,116.861989291996,116.85669962500106,116.85669962500106,117.07756387500558,0,ccw,demo2,001,2025-02-12_23h42.31.971,05-adaptive-methods,2024.2.4,None,2025-02-12 23h42.38.378463 -0500,
117.09001537499717,,,,,cw,60,10,15,0,"[2, 0.5]",lin,1,2,None,0,37,86,up,0.5,1.5,117.07785283400153,117.09001537499717,117.69225129199913,117.57811791700078,118.20733966700209,118.19089758400514,118.19089758400514,118.32744950000779,1,cw,demo2,001,2025-02-12_23h42.31.971,05-adaptive-methods,2024.2.4,None,2025-02-12 23h42.38.378463 -0500,
118.33996941700752,,,,,ccw,60,-10,0,-15,"[2, 0.5]",lin,2,1,None,1,37,87,up,0.5,-1.0,118.32775191700784,118.33996941700752,118.94367141700059,118.84334595900145,119.44017062500643,119.42335475000436,119.42335475000436,119.61070449999534,0,ccw,demo2,001,2025-02-12_23h42.31.971,05-adaptive-methods,2024.2.4,None,2025-02-12 23h42.38.378463 -0500,
119.6233288749936,,,,,cw,60,10,15,0,"[2, 0.5]",lin,1,2,None,0,38,88,up,0.5,1.5,119.61096891699708,119.6233288749936,120.21234720900247,120.10933987499448,120.70978083400405,120.70978083400405,120.70978083400405,120.90833254200697,0,ccw,demo2,001,2025-02-12_23h42.31.971,05-adaptive-methods,2024.2.4,None,2025-02-12 23h42.38.378463 -0500,
120.91373549999844,,,,,ccw,60,-10,0,-15,"[2, 0.5]",lin,2,1,None,1,38,89,up,0.5,-0.5,120.90871529199649,120.91373549999844,121.50667341699591,121.40917941699445,122.00742304199957,122.00742304199957,122.00742304199957,122.29249216700555,1,cw,demo2,001,2025-02-12_23h42.31.971,05-adaptive-methods,2024.2.4,None,2025-02-12 23h42.38.378463 -0500,
122.30693900000188,,,,,cw,60,10,15,0,"[2, 0.5]",lin,1,2,None,0,39,90,up,0.5,2.0,122.29277470899979,122.30693900000188,122.89008833399566,122.8072627500078,123.37572912500764,123.39005783399625,123.39005783399625,123.67499779199716,1,cw,demo2,001,2025-02-12_23h42.31.971,05-adaptive-methods,2024.2.4,None,2025-02-12 23h42.38.378463 -0500,
123.68049829200027,,,,,ccw,60,-10,0,-15,"[2, 0.5]",lin,2,1,None,1,39,91,down,0.5,-1.0,123.67543204200047,123.68049829200027,124.29178312499425,124.19129033399804,124.79002412500267,124.77360729199427,124.77360729199427,125.19150520900439,1,cw,demo2,001,2025-02-12_23h42.31.971,05-adaptive-methods,2024.2.4,None,2025-02-12 23h42.38.378463 -0500,
125.1965653340012,,,,,ccw,60,-10,0,-15,"[2, 0.5]",lin,2,1,None,1,40,92,down,0.5,-1.5,125.19180337499711,125.1965653340012,125.79006312499405,125.68996000000334,126.27560112500214,126.2900832919986,126.2900832919986,126.5092577089963,1,cw,demo2,001,2025-02-12_23h42.31.971,05-adaptive-methods,2024.2.4,None,2025-02-12 23h42.38.378463 -0500,
126.52372650000325,,,,,cw,60,10,15,0,"[2, 0.5]",lin,1,2,None,0,40,93,up,0.5,2.0,126.50950804199965,126.52372650000325,127.12429287499981,127.0106988339976,127.62402545899386,127.62402545899386,127.62402545899386,127.7777397089958,1,cw,demo2,001,2025-02-12_23h42.31.971,05-adaptive-methods,2024.2.4,None,2025-02-12 23h42.38.378463 -0500,
127.78991287499957,,,,,cw,60,10,15,0,"[2, 0.5]",lin,1,2,None,0,41,94,down,0.5,1.5,127.7780270420044,127.78991287499957,128.3903512090037,128.2927602090058,128.8908875000052,128.8908875000052,128.8908875000052,129.09134533400356,0,ccw,demo2,001,2025-02-12_23h42.31.971,05-adaptive-methods,2024.2.4,None,2025-02-12 23h42.38.378463 -0500,
129.0965408750053,,,,,ccw,60,-10,0,-15,"[2, 0.5]",lin,2,1,None,1,41,95,down,0.5,-2.0,129.09163187499507,129.0965408750053,129.68997787499393,129.5912682920025,130.17541929200524,130.19011129200226,130.19011129200226,130.40839979199518,1,cw,demo2,001,2025-02-12_23h42.31.971,05-adaptive-methods,2024.2.4,None,2025-02-12 23h42.38.378463 -0500,
130.41341370900045,,,,,cw,60,10,15,0,"[2, 0.5]",lin,1,2,None,0,42,96,up,0.5,2.0,130.40865749999648,130.41341370900045,131.02404324999952,130.91203329199925,131.5116007500037,131.50681795900164,131.50681795900164,131.57778579200385,1,cw,demo2,001,2025-02-12_23h42.31.971,05-adaptive-methods,2024.2.4,None,2025-02-12 23h42.38.378463 -0500,
131.5900520419964,,,,,ccw,60,-10,0,-15,"[2, 0.5]",lin,2,1,None,1,42,97,down,0.5,-2.5,131.57804991700687,131.5900520419964,132.19058091699844,132.0912135420076,132.69078745899606,132.69078745899606,132.69078745899606,132.95826008400763,0,ccw,demo2,001,2025-02-12_23h42.31.971,05-adaptive-methods,2024.2.4,None,2025-02-12 23h42.38.378463 -0500,
132.96240462499554,,,,,ccw,60,-10,0,-15,"[2, 0.5]",lin,2,1,None,1,43,98,down,0.5,-2.5,132.9585773340077,132.96240462499554,133.55674695900234,133.47441325000545,134.0588776670047,134.0588776670047,134.0588776670047,134.41076158400392,0,ccw,demo2,001,2025-02-12_23h42.31.971,05-adaptive-methods,2024.2.4,None,2025-02-12 23h42.38.378463 -0500,
134.4233101669961,,,,,cw,60,10,15,0,"[2, 0.5]",lin,1,2,None,0,43,99,up,0.5,2.0,134.4110713340051,134.4233101669961,135.02404587500496,134.92489366700465,135.51157183399482,135.51157183399482,135.51157183399482,135.55740858400532,1,cw,demo2,001,2025-02-12_23h42.31.971,05-adaptive-methods,2024.2.4,None,2025-02-12 23h42.38.378463 -0500,
135.56272483400244,,,,,ccw,60,-10,0,-15,"[2, 0.5]",lin,2,1,None,1,44,100,up,0.5,-2.0,135.55769658400095,135.56272483400244,136.15717108400713,136.07463845900202,136.65762370900484,136.65762370900484,136.65762370900484,136.84492995899927,1,cw,demo2,001,2025-02-12_23h42.31.971,05-adaptive-methods,2024.2.4,None,2025-02-12 23h42.38.378463 -0500,
136.86039204199915,,,,,cw,60,10,15,0,"[2, 0.5]",lin,1,2,None,0,44,101,down,0.5,1.5,136.84547516700695,136.86039204199915,137.44001375000516,137.3567318340065,137.92897841699596,137.94040487500024,137.94040487500024,138.14139291699394,1,cw,demo2,001,2025-02-12_23h42.31.971,05-adaptive-methods,2024.2.4,None,2025-02-12 23h42.38.378463 -0500,
138.1462148749997,,,,,ccw,60,-10,0,-15,"[2, 0.5]",lin,2,1,None,1,45,102,down,0.5,-2.5,138.1418461669964,138.1462148749997,138.74049054199713,138.65704670900595,139.22724925000512,139.24003575000097,139.24003575000097,139.40808341700176,0,ccw,demo2,001,2025-02-12_23h42.31.971,05-adaptive-methods,2024.2.4,None,2025-02-12 23h42.38.378463 -0500,
139.4136669169966,,,,,cw,60,10,15,0,"[2, 0.5]",lin,1,2,None,0,45,103,down,0.5,1.5,139.40834933400038,139.4136669169966,140.00758045900147,139.92445849999785,140.49279879199457,140.50660387499374,140.50660387499374,140.5580199170072,1,cw,demo2,001,2025-02-12_23h42.31.971,05-adaptive-methods,2024.2.4,None,2025-02-12 23h42.38.378463 -0500,
140.56241070899705,,,,,cw,60,10,15,0,"[2, 0.5]",lin,1,2,None,0,46,104,down,0.5,1.0,140.55828495899914,140.56241070899705,141.15795141700073,141.05882512500102,141.6564680839947,141.6564680839947,141.6564680839947,142.14154595900618,1,cw,demo2,001,2025-02-12_23h42.31.971,05-adaptive-methods,2024.2.4,None,2025-02-12 23h42.38.378463 -0500,
142.1468628339935,,,,,ccw,60,-10,0,-15,"[2, 0.5]",lin,2,1,None,1,46,105,down,0.5,-2.5,142.14187954200315,142.1468628339935,142.7400403339998,142.6572178339993,143.24096004200692,143.24096004200692,143.24096004200692,143.3591748339968,0,ccw,demo2,001,2025-02-12_23h42.31.971,05-adaptive-methods,2024.2.4,None,2025-02-12 23h42.38.378463 -0500,
143.375929834001,,,,,cw,60,10,15,0,"[2, 0.5]",lin,1,2,None,0,47,106,down,0.5,1.0,143.35954933399626,143.375929834001,143.97444808400178,143.8734680839989,144.47504479199415,144.47504479199415,144.47504479199415,145.19179733400233,1,cw,demo2,001,2025-02-12_23h42.31.971,05-adaptive-methods,2024.2.4,None,2025-02-12 23h42.38.378463 -0500,
145.19725212499907,,,,,ccw,60,-10,0,-15,"[2, 0.5]",lin,2,1,None,1,47,107,up,0.5,-2.0,145.19221754200407,145.19725212499907,145.78997920900292,145.7090689589968,146.29109495900047,146.29109495900047,146.29109495900047,146.52487399999518,0,ccw,demo2,001,2025-02-12_23h42.31.971,05-adaptive-methods,2024.2.4,None,2025-02-12 23h42.38.378463 -0500,
146.53027879199362,,,,,ccw,60,-10,0,-15,"[2, 0.5]",lin,2,1,None,1,48,108,up,0.5,-2.0,146.52519895900332,146.53027879199362,147.12275354200392,147.0261460000038,147.60880274999363,147.62334491699585,147.62334491699585,147.94514991699543,0,ccw,demo2,001,2025-02-12_23h42.31.971,05-adaptive-methods,2024.2.4,None,2025-02-12 23h42.38.378463 -0500,
147.95974274999753,,,,,cw,60,10,15,0,"[2, 0.5]",lin,1,2,None,0,48,109,down,0.5,0.5,147.94544241699623,147.95974274999753,148.5572820840025,148.47401716699824,149.0456165420037,149.0456165420037,149.0456165420037,149.14545637500123,1,cw,demo2,001,2025-02-12_23h42.31.971,05-adaptive-methods,2024.2.4,None,2025-02-12 23h42.38.378463 -0500,
149.15663720900193,,,,,ccw,60,-10,0,-15,"[2, 0.5]",lin,2,1,None,1,49,110,up,0.5,-1.5,149.14576091700292,149.15663720900193,149.74346250000235,149.64220912499877,150.23956679200637,150.244634667004,150.244634667004,150.3636658750038,0,ccw,demo2,001,2025-02-12_23h42.31.971,05-adaptive-methods,2024.2.4,None,2025-02-12 23h42.38.378463 -0500,
150.37333512499754,,,,,cw,60,10,15,0,"[2, 0.5]",lin,1,2,None,0,49,111,down,0.5,0.5,150.36400141699414,150.37333512499754,150.9605465420027,150.8601942499954,151.45675137499347,151.45675137499347,151.45675137499347,151.65945370899863,1,cw,demo2,001,2025-02-12_23h42.31.971,05-adaptive-methods,2024.2.4,None,2025-02-12 23h42.38.378463 -0500,
151.6736160839937,,,,,ccw,60,-10,0,-15,"[2, 0.5]",lin,2,1,None,1,50,112,up,0.5,-1.5,151.6598027919972,151.6736160839937,152.27569212499657,152.16060308400483,152.77439608400164,152.75704612499976,152.75704612499976,153.11175629199715,0,ccw,demo2,001,2025-02-12_23h42.31.971,05-adaptive-methods,2024.2.4,None,2025-02-12 23h42.38.378463 -0500,
153.12339154200163,,,,,cw,60,10,15,0,"[2, 0.5]",lin,1,2,None,0,50,113,down,0.5,0.0,153.11205054199672,153.12339154200163,153.7092767090071,153.60914991699974,154.2242784169939,154.2242784169939,154.2242784169939,154.32464758399874,0,cw,demo2,001,2025-02-12_23h42.31.971,05-adaptive-methods,2024.2.4,None,2025-02-12 23h42.38.378463 -0500,
154.32972370900097,,,,,ccw,60,-10,0,-15,"[2, 0.5]",lin,2,1,None,1,51,114,up,0.5,-1.0,154.32488912499684,154.32972370900097,154.92337033399963,154.8233000839973,155.4090522500046,155.4233391250018,155.4233391250018,155.47720695899625,0,ccw,demo2,001,2025-02-12_23h42.31.971,05-adaptive-methods,2024.2.4,None,2025-02-12 23h42.38.378463 -0500,
155.4899819590064,,,,,cw,60,10,15,0,"[2, 0.5]",lin,1,2,None,0,51,115,up,0.5,0.5,155.4774668750033,155.4899819590064,156.09095270899707,155.97562658399693,156.5910795420059,156.5910795420059,156.5910795420059,156.65913949999958,1,cw,demo2,001,2025-02-12_23h42.31.971,05-adaptive-methods,2024.2.4,None,2025-02-12 23h42.38.378463 -0500,
156.67370825000398,,,,,ccw,60,-10,0,-15,"[2, 0.5]",lin,2,1,None,1,52,116,up,0.5,-1.0,156.65954241699365,156.67370825000398,157.2567302499956,157.1746516669955,157.75754491699627,157.7742215420003,157.7742215420003,158.2437693749962,1,cw,demo2,001,2025-02-12_23h42.31.971,05-adaptive-methods,2024.2.4,None,2025-02-12 23h42.38.378463 -0500,
158.25663029200223,,,,,cw,60,10,15,0,"[2, 0.5]",lin,1,2,None,0,52,117,up,0.5,0.5,158.24405079199641,158.25663029200223,158.84254383400548,158.74215487499896,159.3399804590008,159.3399804590008,159.3399804590008,159.51088854200498,1,cw,demo2,001,2025-02-12_23h42.31.971,05-adaptive-methods,2024.2.4,None,2025-02-12 23h42.38.378463 -0500,
159.52365241700318,,,,,ccw,60,-10,0,-15,"[2, 0.5]",lin,2,1,None,1,53,118,down,0.5,-1.5,159.51146916700236,159.52365241700318,160.1089218749985,160.00908562500263,160.62606304200017,160.62606304200017,160.62606304200017,160.97485195900663,1,cw,demo2,001,2025-02-12_23h42.31.971,05-adaptive-methods,2024.2.4,None,2025-02-12 23h42.38.378463 -0500,
160.98027920900495,,,,,cw,60,10,15,0,"[2, 0.5]",lin,1,2,None,0,53,119,down,0.5,0.0,160.9752234589978,160.98027920900495,161.57327483399422,161.49062183400383,162.06298683400382,162.06298683400382,162.06298683400382,162.22746237499814,0,cw,demo2,001,2025-02-12_23h42.31.971,05-adaptive-methods,2024.2.4,None,2025-02-12 23h42.38.378463 -0500,
162.23998808399483,,,,,ccw,60,-10,0,-15,"[2, 0.5]",lin,2,1,None,1,54,120,down,0.5,-2.0,162.22777612500067,162.23998808399483,162.82607624999946,162.72789258400735,163.32332037499873,163.32332037499873,163.32332037499873,163.6447696670075,0,ccw,demo2,001,2025-02-12_23h42.31.971,05-adaptive-methods,2024.2.4,None,2025-02-12 23h42.38.378463 -0500,
163.65669379199971,,,,,cw,60,10,15,0,"[2, 0.5]",lin,1,2,None,0,54,121,up,0.5,0.5,163.64507766699535,163.65669379199971,164.2577037919982,164.1576361250045,164.74643437500345,164.74643437500345,164.74643437500345,164.9248969170003,0,ccw,demo2,001,2025-02-12_23h42.31.971,05-adaptive-methods,2024.2.4,None,2025-02-12 23h42.38.378463 -0500,
164.93005249999987,,,,,cw,60,10,15,0,"[2, 0.5]",lin,1,2,None,0,55,122,up,0.5,1.0,164.9253108749981,164.93005249999987,165.52334866700403,165.429724333997,166.01376366699697,166.01376366699697,166.01376366699697,166.17606141700526,1,cw,demo2,001,2025-02-12_23h42.31.971,05-adaptive-methods,2024.2.4,None,2025-02-12 23h42.38.378463 -0500,
166.19035575000453,,,,,ccw,60,-10,0,-15,"[2, 0.5]",lin,2,1,None,1,55,123,down,0.5,-2.0,166.17637674999423,166.19035575000453,166.77377891700598,166.69077408399608,167.27476116700564,167.29108029199415,167.29108029199415,167.46007141699374,1,cw,demo2,001,2025-02-12_23h42.31.971,05-adaptive-methods,2024.2.4,None,2025-02-12 23h42.38.378463 -0500,
167.47547470900463,,,,,ccw,60,-10,0,-15,"[2, 0.5]",lin,2,1,None,1,56,124,down,0.5,-2.5,167.46037766699737,167.47547470900463,168.05676445900463,167.9934219590068,168.5574921249936,168.5749584169971,168.5749584169971,168.74513991699496,0,ccw,demo2,001,2025-02-12_23h42.31.971,05-adaptive-methods,2024.2.4,None,2025-02-12 23h42.38.378463 -0500,
168.7566927089938,,,,,cw,60,10,15,0,"[2, 0.5]",lin,1,2,None,0,56,125,up,0.5,1.0,168.74541479200707,168.7566927089938,169.35787150000397,169.25738487500348,169.84674574999372,169.84674574999372,169.84674574999372,170.1091238749941,1,cw,demo2,001,2025-02-12_23h42.31.971,05-adaptive-methods,2024.2.4,None,2025-02-12 23h42.38.378463 -0500,
170.114752709007,,,,,cw,60,10,15,0,"[2, 0.5]",lin,1,2,None,0,57,126,down,0.5,0.5,170.10946079199493,170.114752709007,170.7256535839988,170.60895595900365,171.24078970900155,171.2240310000052,171.2240310000052,171.52605991699966,1,cw,demo2,001,2025-02-12_23h42.31.971,05-adaptive-methods,2024.2.4,None,2025-02-12 23h42.38.378463 -0500,
171.54254862500238,,,,,ccw,60,-10,0,-15,"[2, 0.5]",lin,2,1,None,1,57,127,down,0.5,-2.5,171.52645270900393,171.54254862500238,172.14063100000203,172.04076966700086,172.62810295900272,172.62332400000014,172.62332400000014,172.82745174999582,1,cw,demo2,001,2025-02-12_23h42.31.971,05-adaptive-methods,2024.2.4,None,2025-02-12 23h42.38.378463 -0500,
172.83995329200116,,,,,ccw,60,-10,0,-15,"[2, 0.5]",lin,2,1,None,1,58,128,down,0.5,-3.0,172.8276909999986,172.83995329200116,173.4413209589984,173.3255263339961,173.93998691700108,173.9257132089988,173.9257132089988,174.24503479199484,0,ccw,demo2,001,2025-02-12_23h42.31.971,05-adaptive-methods,2024.2.4,None,2025-02-12 23h42.38.378463 -0500,
174.25671495900315,,,,,cw,60,10,15,0,"[2, 0.5]",lin,1,2,None,0,58,129,down,0.5,0.5,174.245356333995,174.25671495900315,174.84361683399766,174.74252970899397,175.35752420900099,175.35752420900099,175.35752420900099,175.49373608399765,1,cw,demo2,001,2025-02-12_23h42.31.971,05-adaptive-methods,2024.2.4,None,2025-02-12 23h42.38.378463 -0500,
175.50695079199795,,,,,cw,60,10,15,0,"[2, 0.5]",lin,1,2,None,0,59,130,down,0.5,0.0,175.4940298750007,175.50695079199795,176.09009520900145,176.00753937500122,176.57827633399575,176.58964691699657,176.58964691699657,176.613733709004,1,ccw,demo2,001,2025-02-12_23h42.31.971,05-adaptive-methods,2024.2.4,None,2025-02-12 23h42.38.378463 -0500,
176.62332445899665,,,,,ccw,60,-10,0,-15,"[2, 0.5]",lin,2,1,None,1,59,131,down,0.5,-3.0,176.61397487499926,176.62332445899665,177.2132824589935,177.12363633399946,177.72499737500038,177.72499737500038,177.72499737500038,178.02466249999998,0,ccw,demo2,001,2025-02-12_23h42.31.971,05-adaptive-methods,2024.2.4,None,2025-02-12 23h42.38.378463 -0500,
178.02984200000355,,,,,ccw,60,-10,0,-15,"[2, 0.5]",lin,2,1,None,1,60,132,up,0.5,-2.5,178.02493541699369,178.02984200000355,178.62407254200662,178.52668341700337,179.1249077090033,179.1249077090033,179.1249077090033,179.8446017499955,0,ccw,demo2,001,2025-02-12_23h42.31.971,05-adaptive-methods,2024.2.4,None,2025-02-12 23h42.38.378463 -0500,
179.85661625000648,,,,,cw,60,10,15,0,"[2, 0.5]",lin,1,2,None,0,60,133,down,0.5,0.0,179.84492579200014,179.85661625000648,180.4598402499978,180.34235741700104,180.97418316699623,180.95730495899625,180.95730495899625,181.1329348750005,0,cw,demo2,001,2025-02-12_23h42.31.971,05-adaptive-methods,2024.2.4,None,2025-02-12 23h42.38.378463 -0500,
