thisRow.t,notes,begin_experiment.started,text.started,begin_experiment.stopped,staircase.label,staircase.nReps,staircase.startVal,staircase.maxVal,staircase.minVal,staircase.stepSizes,staircase.stepType,staircase.nUp,staircase.nDown,staircase.nReversals,staircase.thisIndex,staircase.thisRepN,staircase.thisN,staircase.direction,staircase.stepSize,staircase.intensity,trial.started,grating.started,grating_test.started,grating.stopped,grating_test.stopped,key_resp.started,trial.stopped,staircase.response,response,participant,session,date,expName,psychopyVersion,frameRate,expStart,
,,0.008700583006429952,0.023308792005991563,0.9152999170037219,,,,,,,,,,,,,,,,,,,,,,,,,,demo,001,2025-02-09_19h50.12.686,05-adaptive-methods,2024.2.4,None,2025-02-09 19h50.17.655567 -0500,
1.124774542004161,,,,,cw,60,12,15,-15,1,lin,1,2,None,0,1,0,start,1,12,1.117924000005587,1.124774542004161,1.5121844580062316,1.6094434170008753,2.009428500001377,2.009428500001377,2.4606199170011678,1,cw,demo,001,2025-02-09_19h50.12.686,05-adaptive-methods,2024.2.4,None,2025-02-09 19h50.17.655567 -0500,
2.4739054170058807,,,,,cw,60,12,15,-15,1,lin,1,2,None,0,2,1,down,1,11,2.460906416999933,2.4739054170058807,3.0751066250013537,2.961165250002523,3.5763359170014155,3.5586719999992056,3.961824375001015,1,cw,demo,001,2025-02-09_19h50.12.686,05-adaptive-methods,2024.2.4,None,2025-02-09 19h50.17.655567 -0500,
3.976468583001406,,,,,cw,60,12,15,-15,1,lin,1,2,None,0,3,2,down,1,10,3.962094292000984,3.976468583001406,4.560449791999417,4.473889583001437,5.0744574580021435,5.0744574580021435,5.325234250005451,1,cw,demo,001,2025-02-09_19h50.12.686,05-adaptive-methods,2024.2.4,None,2025-02-09 19h50.17.655567 -0500,
5.330463124999369,,,,,hi,6,15,15,15,1,lin,1,2,None,2,1,3,start,1,15,5.32548708300601,5.330463124999369,5.923884000003454,5.827888125000754,6.411289125004259,6.423840292001842,6.695195167005295,1,cw,demo,001,2025-02-09_19h50.12.686,05-adaptive-methods,2024.2.4,None,2025-02-09 19h50.17.655567 -0500,
6.707153583003674,,,,,hi,6,15,15,15,1,lin,1,2,None,2,2,4,down,1,15,6.695589792005194,6.707153583003674,7.293816417004564,7.2095245420059655,7.793135375002748,7.793135375002748,8.045024917002593,1,cw,demo,001,2025-02-09_19h50.12.686,05-adaptive-methods,2024.2.4,None,2025-02-09 19h50.17.655567 -0500,
8.057235000000219,,,,,lo,6,-15,-15,-15,1,lin,2,1,None,3,1,5,start,1,-15,8.045340333002969,8.057235000000219,8.66007250000257,8.54484529200272,9.174510125005327,9.157991625004797,9.375129416999698,0,ccw,demo,001,2025-02-09_19h50.12.686,05-adaptive-methods,2024.2.4,None,2025-02-09 19h50.17.655567 -0500,
9.380306833001669,,,,,lo,6,-15,-15,-15,1,lin,2,1,None,3,2,6,up,1,-15,9.375330000002577,9.380306833001669,9.973915958005819,9.877683375001652,10.459315083004185,10.473847625005874,10.658695083002385,0,ccw,demo,001,2025-02-09_19h50.12.686,05-adaptive-methods,2024.2.4,None,2025-02-09 19h50.17.655567 -0500,
10.66440387500188,,,,,hi,6,15,15,15,1,lin,1,2,None,2,3,7,down,1,15,10.658996458005277,10.66440387500188,11.257122499999241,11.159376542003884,11.742603582999436,11.757263583000167,11.891639667002892,1,cw,demo,001,2025-02-09_19h50.12.686,05-adaptive-methods,2024.2.4,None,2025-02-09 19h50.17.655567 -0500,
11.897021708005923,,,,,ccw,60,-12,15,-15,1,lin,2,1,None,1,1,8,start,1,-12,11.891991542004689,11.897021708005923,12.490493708006397,12.393171708004957,12.976544042001478,12.990610291999474,13.275127833003353,0,ccw,demo,001,2025-02-09_19h50.12.686,05-adaptive-methods,2024.2.4,None,2025-02-09 19h50.17.655567 -0500,
13.280122083000606,,,,,cw,60,12,15,-15,1,lin,1,2,None,0,4,9,down,1,9,13.27533958300046,13.280122083000606,13.873837083003309,13.776133125000342,14.359243000006245,14.373756792003405,14.72512720800296,1,cw,demo,001,2025-02-09_19h50.12.686,05-adaptive-methods,2024.2.4,None,2025-02-09 19h50.17.655567 -0500,
14.730332417006139,,,,,cw,60,12,15,-15,1,lin,1,2,None,0,5,10,down,1,8,14.725347500003409,14.730332417006139,15.323800333004328,15.225846749999619,15.80925945800118,15.823913667001761,16.1117173330058,1,cw,demo,001,2025-02-09_19h50.12.686,05-adaptive-methods,2024.2.4,None,2025-02-09 19h50.17.655567 -0500,
16.125843458001327,,,,,lo,6,-15,-15,-15,1,lin,2,1,None,3,3,11,up,1,-15,16.111995999999635,16.125843458001327,16.70921283300413,16.62380679200578,17.207224500001757,17.209774250004557,17.511157958004333,0,ccw,demo,001,2025-02-09_19h50.12.686,05-adaptive-methods,2024.2.4,None,2025-02-09 19h50.17.655567 -0500,
17.523958542005857,,,,,hi,6,15,15,15,1,lin,1,2,None,2,4,12,down,1,15,17.511600083002122,17.523958542005857,18.108550875003857,18.009673000000475,18.60717800000566,18.609412792000512,18.941898791999847,1,cw,demo,001,2025-02-09_19h50.12.686,05-adaptive-methods,2024.2.4,None,2025-02-09 19h50.17.655567 -0500,
18.947160583004006,,,,,ccw,60,-12,15,-15,1,lin,2,1,None,1,2,13,up,1,-11,18.9423383750036,18.947160583004006,19.54060695800581,19.44434608300071,20.027969667004072,20.041204958004528,20.344508624999435,0,ccw,demo,001,2025-02-09_19h50.12.686,05-adaptive-methods,2024.2.4,None,2025-02-09 19h50.17.655567 -0500,
20.357095583000046,,,,,hi,6,15,15,15,1,lin,1,2,None,2,5,14,down,1,15,20.344796208002663,20.357095583000046,20.94348004200583,20.84299558299972,21.440523458004463,21.44295237500046,21.741570208003395,1,cw,demo,001,2025-02-09_19h50.12.686,05-adaptive-methods,2024.2.4,None,2025-02-09 19h50.17.655567 -0500,
21.7465366250035,,,,,lo,6,-15,-15,-15,1,lin,2,1,None,3,4,15,up,1,-15,21.741769042004307,21.7465366250035,22.340670958001283,22.242818958002317,22.827564417006215,22.84056029200292,23.17530550000083,0,ccw,demo,001,2025-02-09_19h50.12.686,05-adaptive-methods,2024.2.4,None,2025-02-09 19h50.17.655567 -0500,
23.180868333001854,,,,,cw,60,12,15,-15,1,lin,1,2,None,0,6,16,down,1,7,23.17573712500598,23.180868333001854,23.773834875006287,23.676515500003006,24.276079583003593,24.276079583003593,24.708157708002545,1,cw,demo,001,2025-02-09_19h50.12.686,05-adaptive-methods,2024.2.4,None,2025-02-09 19h50.17.655567 -0500,
24.71228137500293,,,,,ccw,60,-12,15,-15,1,lin,2,1,None,1,3,17,up,1,-10,24.708310042005905,24.71228137500293,25.30930916700163,25.209613000006357,25.80725316700409,25.80725316700409,26.225123208001605,0,ccw,demo,001,2025-02-09_19h50.12.686,05-adaptive-methods,2024.2.4,None,2025-02-09 19h50.17.655567 -0500,
26.230108625000867,,,,,cw,60,12,15,-15,1,lin,1,2,None,0,7,18,down,1,6,26.225330000001122,26.230108625000867,26.823916208006267,26.725915708004322,27.31096037500538,27.3238869170018,27.691463292001572,1,cw,demo,001,2025-02-09_19h50.12.686,05-adaptive-methods,2024.2.4,None,2025-02-09 19h50.17.655567 -0500,
27.695983125006023,,,,,hi,6,15,15,15,1,lin,1,2,None,2,6,19,down,1,15,27.69164158300555,27.695983125006023,28.27726091700606,28.190668792005454,28.773866875002568,28.77743204199942,29.125264458001766,1,cw,demo,001,2025-02-09_19h50.12.686,05-adaptive-methods,2024.2.4,None,2025-02-09 19h50.17.655567 -0500,
29.131162333003886,,,,,ccw,60,-12,15,-15,1,lin,2,1,None,1,4,20,up,1,-9,29.125819000000774,29.131162333003886,29.723914875001356,29.627785500000755,30.211144208005862,30.223843667001347,30.49499604200537,0,ccw,demo,001,2025-02-09_19h50.12.686,05-adaptive-methods,2024.2.4,None,2025-02-09 19h50.17.655567 -0500,
30.507198999999673,,,,,ccw,60,-12,15,-15,1,lin,2,1,None,1,5,21,up,1,-8,30.495299500005785,30.507198999999673,31.090436292004597,30.992939750001824,31.576415916999395,31.594620875002875,32.042035292004584,0,ccw,demo,001,2025-02-09_19h50.12.686,05-adaptive-methods,2024.2.4,None,2025-02-09 19h50.17.655567 -0500,
32.047528082999634,,,,,cw,60,12,15,-15,1,lin,1,2,None,0,8,22,down,1,5,32.04239362500084,32.047528082999634,32.64169491700159,32.54309125000145,33.14053304200206,33.14053304200206,33.86292016700463,1,cw,demo,001,2025-02-09_19h50.12.686,05-adaptive-methods,2024.2.4,None,2025-02-09 19h50.17.655567 -0500,
33.8738809580027,,,,,ccw,60,-12,15,-15,1,lin,2,1,None,1,6,23,up,1,-7,33.86340279200522,33.8738809580027,34.46092279200093,34.35965004200261,34.973810458002845,34.973810458002845,35.444262583005184,0,ccw,demo,001,2025-02-09_19h50.12.686,05-adaptive-methods,2024.2.4,None,2025-02-09 19h50.17.655567 -0500,
35.457198957999935,,,,,lo,6,-15,-15,-15,1,lin,2,1,None,3,5,24,up,1,-15,35.44454695800232,35.457198957999935,36.04358300000604,35.94340770800045,36.54056508299982,36.54469295799936,36.858576541999355,0,ccw,demo,001,2025-02-09_19h50.12.686,05-adaptive-methods,2024.2.4,None,2025-02-09 19h50.17.655567 -0500,
36.863982667004166,,,,,lo,6,-15,-15,-15,1,lin,2,1,None,3,6,25,up,1,-15,36.858839332999196,36.863982667004166,37.45719837499928,37.359944125004404,37.9429850420056,37.95715433300211,38.24578879200271,0,ccw,demo,001,2025-02-09_19h50.12.686,05-adaptive-methods,2024.2.4,None,2025-02-09 19h50.17.655567 -0500,
38.257231458002934,,,,,cw,60,12,15,-15,1,lin,1,2,None,0,9,26,down,1,4,38.246371375003946,38.257231458002934,38.84369012500247,38.742604582999775,39.34062445800373,39.34442025000317,39.47522379200382,1,cw,demo,001,2025-02-09_19h50.12.686,05-adaptive-methods,2024.2.4,None,2025-02-09 19h50.17.655567 -0500,
39.48062933300389,,,,,ccw,60,-12,15,-15,1,lin,2,1,None,1,7,27,up,1,-6,39.47546620800131,39.48062933300389,40.09093470800144,39.99371662500198,40.577490667004895,40.57383275000029,40.677298875001725,0,ccw,demo,001,2025-02-09_19h50.12.686,05-adaptive-methods,2024.2.4,None,2025-02-09 19h50.17.655567 -0500,
40.69075616700138,,,,,cw,60,12,15,-15,1,lin,1,2,None,0,10,28,down,1,3,40.67776075000438,40.69075616700138,41.29276116700203,41.19340391700098,41.79300104200229,41.79300104200229,41.96056683300412,1,cw,demo,001,2025-02-09_19h50.12.686,05-adaptive-methods,2024.2.4,None,2025-02-09 19h50.17.655567 -0500,
41.97388441700605,,,,,ccw,60,-12,15,-15,1,lin,2,1,None,1,8,29,up,1,-5,41.96082708299946,41.97388441700605,42.5592367920035,42.476090750002186,43.058828625005845,43.076545833006094,43.30835170800128,0,ccw,demo,001,2025-02-09_19h50.12.686,05-adaptive-methods,2024.2.4,None,2025-02-09 19h50.17.655567 -0500,
43.31337762500334,,,,,ccw,60,-12,15,-15,1,lin,2,1,None,1,9,30,up,1,-4,43.30866620800225,43.31337762500334,43.909319583006436,43.825932375002594,44.40720637500635,44.40720637500635,44.64436333300546,0,ccw,demo,001,2025-02-09_19h50.12.686,05-adaptive-methods,2024.2.4,None,2025-02-09 19h50.17.655567 -0500,
44.65724529200088,,,,,ccw,60,-12,15,-15,1,lin,2,1,None,1,10,31,up,1,-3,44.64467741700355,44.65724529200088,45.259716542001115,45.15788145800616,45.77513083300437,45.75836333299958,45.894856250000885,0,ccw,demo,001,2025-02-09_19h50.12.686,05-adaptive-methods,2024.2.4,None,2025-02-09 19h50.17.655567 -0500,
45.91005529200629,,,,,ccw,60,-12,15,-15,1,lin,2,1,None,1,11,32,up,1,-2,45.89584741699946,45.91005529200629,46.507925583006,46.407194999999774,46.99407987500308,46.99059466700419,47.1107497500052,1,cw,demo,001,2025-02-09_19h50.12.686,05-adaptive-methods,2024.2.4,None,2025-02-09 19h50.17.655567 -0500,
47.12695779200294,,,,,cw,60,12,15,-15,1,lin,1,2,None,0,11,33,down,1,2,47.111011083004996,47.12695779200294,47.707226667000214,47.62890737500129,48.210505375005596,48.22467495800083,48.261675250003464,1,cw,demo,001,2025-02-09_19h50.12.686,05-adaptive-methods,2024.2.4,None,2025-02-09 19h50.17.655567 -0500,
48.27760675000172,,,,,cw,60,12,15,-15,1,lin,1,2,None,0,12,34,down,1,1,48.26222754199989,48.27760675000172,48.87603729200055,48.792929917006404,49.39162854200549,49.3746852080003,49.478065458002675,1,cw,demo,001,2025-02-09_19h50.12.686,05-adaptive-methods,2024.2.4,None,2025-02-09 19h50.17.655567 -0500,
49.4940981250038,,,,,ccw,60,-12,15,-15,1,lin,2,1,None,1,12,35,down,1,-3,49.478679874999216,49.4940981250038,50.091356500000984,50.007777999999234,50.591483542004426,50.591483542004426,50.64565308300371,0,ccw,demo,001,2025-02-09_19h50.12.686,05-adaptive-methods,2024.2.4,None,2025-02-09 19h50.17.655567 -0500,
50.66036950000125,,,,,cw,60,12,15,-15,1,lin,1,2,None,0,13,36,down,1,0,50.646519667003304,50.66036950000125,51.243960874999175,51.15694341700146,51.74475958300172,51.74475958300172,51.99705841700052,0,ccw,demo,001,2025-02-09_19h50.12.686,05-adaptive-methods,2024.2.4,None,2025-02-09 19h50.17.655567 -0500,
52.00726787500025,,,,,cw,60,12,15,-15,1,lin,1,2,None,0,14,37,up,1,1,51.9974500419994,52.00726787500025,52.59357799999998,52.49585270800162,53.09290375000273,53.10943641700578,53.25844112500636,1,cw,demo,001,2025-02-09_19h50.12.686,05-adaptive-methods,2024.2.4,None,2025-02-09 19h50.17.655567 -0500,
53.26330220800446,,,,,ccw,60,-12,15,-15,1,lin,2,1,None,1,13,38,down,1,-3,53.25873812500504,53.26330220800446,53.8577905830025,53.759176083003695,54.34315895799955,54.34315895799955,54.408198417004314,0,ccw,demo,001,2025-02-09_19h50.12.686,05-adaptive-methods,2024.2.4,None,2025-02-09 19h50.17.655567 -0500,
54.41285775000142,,,,,ccw,60,-12,15,-15,1,lin,2,1,None,1,14,39,up,1,-2,54.40839916700497,54.41285775000142,55.007194042002084,54.91119299999991,55.49454025000159,55.50715391700214,55.61005112500425,0,ccw,demo,001,2025-02-09_19h50.12.686,05-adaptive-methods,2024.2.4,None,2025-02-09 19h50.17.655567 -0500,
55.62691291700321,,,,,cw,60,12,15,-15,1,lin,1,2,None,0,15,40,up,1,1,55.610565667004266,55.62691291700321,56.22439708300226,56.123965541999496,56.71229183300602,56.707275000000664,56.828117249999195,1,cw,demo,001,2025-02-09_19h50.12.686,05-adaptive-methods,2024.2.4,None,2025-02-09 19h50.17.655567 -0500,
56.84125129200402,,,,,ccw,60,-12,15,-15,1,lin,2,1,None,1,15,41,up,1,-2,56.828742750003585,56.84125129200402,57.44110345800436,57.344532750001235,57.94151004200103,57.94151004200103,58.02853850000247,0,ccw,demo,001,2025-02-09_19h50.12.686,05-adaptive-methods,2024.2.4,None,2025-02-09 19h50.17.655567 -0500,
58.04380558300181,,,,,cw,60,12,15,-15,1,lin,1,2,None,0,16,42,down,1,0,58.029074666999804,58.04380558300181,58.641555250003876,58.54199508300371,59.14052316699963,59.12636858300539,59.27517233300023,1,cw,demo,001,2025-02-09_19h50.12.686,05-adaptive-methods,2024.2.4,None,2025-02-09 19h50.17.655567 -0500,
59.28050749999966,,,,,cw,60,12,15,-15,1,lin,1,2,None,0,17,43,down,1,0,59.275394917000085,59.28050749999966,59.86128695800289,59.77743908300181,60.35788666699955,60.36350170800142,60.49287933300366,0,ccw,demo,001,2025-02-09_19h50.12.686,05-adaptive-methods,2024.2.4,None,2025-02-09 19h50.17.655567 -0500,
60.49887354200473,,,,,cw,60,12,15,-15,1,lin,1,2,None,0,18,44,up,1,1,60.4935180829998,60.49887354200473,61.10831758300628,60.99311850000231,61.60722833299951,61.59059850000631,62.708536333004304,1,cw,demo,001,2025-02-09_19h50.12.686,05-adaptive-methods,2024.2.4,None,2025-02-09 19h50.17.655567 -0500,
62.71341375000338,,,,,cw,60,12,15,-15,1,lin,1,2,None,0,19,45,up,1,1,62.708737667002424,62.71341375000338,63.30937179200555,63.22608983300597,63.80722504200094,63.80722504200094,64.03204341700621,1,cw,demo,001,2025-02-09_19h50.12.686,05-adaptive-methods,2024.2.4,None,2025-02-09 19h50.17.655567 -0500,
64.04063962500368,,,,,ccw,60,-12,15,-15,1,lin,2,1,None,1,16,46,up,1,-1,64.03246100000251,64.04063962500368,64.64124816700496,64.54301350000605,65.14458733300125,65.14458733300125,65.97757670800638,0,ccw,demo,001,2025-02-09_19h50.12.686,05-adaptive-methods,2024.2.4,None,2025-02-09 19h50.17.655567 -0500,
65.99054650000471,,,,,cw,60,12,15,-15,1,lin,1,2,None,0,20,47,down,1,0,65.97789545800333,65.99054650000471,66.57689675000438,66.4764147080059,67.07399829200585,67.07399829200585,67.34205662500608,0,ccw,demo,001,2025-02-09_19h50.12.686,05-adaptive-methods,2024.2.4,None,2025-02-09 19h50.17.655567 -0500,
67.34775262500625,,,,,cw,60,12,15,-15,1,lin,1,2,None,0,21,48,up,1,1,67.3426677919997,67.34775262500625,67.94106550000288,67.84333054200397,68.42645116700442,68.44050137500017,68.56148070800555,1,cw,demo,001,2025-02-09_19h50.12.686,05-adaptive-methods,2024.2.4,None,2025-02-09 19h50.17.655567 -0500,
68.57660925000528,,,,,ccw,60,-12,15,-15,1,lin,2,1,None,1,17,49,up,1,-1,68.56181245799962,68.57660925000528,69.1745560000054,69.0800556250033,69.6750272920035,69.6750272920035,69.82772479200503,0,ccw,demo,001,2025-02-09_19h50.12.686,05-adaptive-methods,2024.2.4,None,2025-02-09 19h50.17.655567 -0500,
69.83450954200089,,,,,ccw,60,-12,15,-15,1,lin,2,1,None,1,18,50,up,1,0,69.82863950000319,69.83450954200089,70.42702275000192,70.32676275000267,70.92383062500448,70.92383062500448,71.04604333300085,1,cw,demo,001,2025-02-09_19h50.12.686,05-adaptive-methods,2024.2.4,None,2025-02-09 19h50.17.655567 -0500,
71.05718408300163,,,,,ccw,60,-12,15,-15,1,lin,2,1,None,1,19,51,down,1,-1,71.04630362500029,71.05718408300163,71.65809679200174,71.54457350000303,72.1581605829997,72.1581605829997,72.24462108300213,0,ccw,demo,001,2025-02-09_19h50.12.686,05-adaptive-methods,2024.2.4,None,2025-02-09 19h50.17.655567 -0500,
72.26092649999919,,,,,cw,60,12,15,-15,1,lin,1,2,None,0,22,52,up,1,1,72.24552400000539,72.26092649999919,72.84051591699972,72.75721175000217,73.34295833299984,73.35752087500441,73.50867520800239,0,ccw,demo,001,2025-02-09_19h50.12.686,05-adaptive-methods,2024.2.4,None,2025-02-09 19h50.17.655567 -0500,
73.5138922920014,,,,,ccw,60,-12,15,-15,1,lin,2,1,None,1,20,53,down,1,-1,73.50889666700095,73.5138922920014,74.10726504200284,74.011253167002,74.60830895800609,74.60830895800609,74.6944120420012,0,ccw,demo,001,2025-02-09_19h50.12.686,05-adaptive-methods,2024.2.4,None,2025-02-09 19h50.17.655567 -0500,
74.71013770800346,,,,,ccw,60,-12,15,-15,1,lin,2,1,None,1,21,54,up,1,0,74.6947395419993,74.71013770800346,75.29347020800196,75.20724925000104,75.79054154200276,75.79054154200276,75.86456120799994,1,cw,demo,001,2025-02-09_19h50.12.686,05-adaptive-methods,2024.2.4,None,2025-02-09 19h50.17.655567 -0500,
75.87383058300475,,,,,ccw,60,-12,15,-15,1,lin,2,1,None,1,22,55,down,1,-1,75.86493829200481,75.87383058300475,76.46072624999942,76.35949504200107,76.97476716700476,76.97476716700476,77.06108912500349,0,ccw,demo,001,2025-02-09_19h50.12.686,05-adaptive-methods,2024.2.4,None,2025-02-09 19h50.17.655567 -0500,
77.07700875000592,,,,,ccw,60,-12,15,-15,1,lin,2,1,None,1,23,56,down,1,-1,77.062055375005,77.07700875000592,77.67785329199978,77.57389500000136,78.17630787500093,78.15934433300572,78.82788145800441,0,ccw,demo,001,2025-02-09_19h50.12.686,05-adaptive-methods,2024.2.4,None,2025-02-09 19h50.17.655567 -0500,
78.8406141670057,,,,,cw,60,12,15,-15,1,lin,1,2,None,0,23,57,up,1,2,78.8281534580019,78.8406141670057,79.42389120800362,79.32787470800395,79.90922404199955,79.92588191700634,80.02532666700426,1,cw,demo,001,2025-02-09_19h50.12.686,05-adaptive-methods,2024.2.4,None,2025-02-09 19h50.17.655567 -0500,
80.03060479200212,,,,,ccw,60,-12,15,-15,1,lin,2,1,None,1,24,58,up,1,0,80.02589020800224,80.03060479200212,80.62420208300318,80.54305991699948,81.11123137500545,81.12392095800169,81.22841450000124,1,cw,demo,001,2025-02-09_19h50.12.686,05-adaptive-methods,2024.2.4,None,2025-02-09 19h50.17.655567 -0500,
81.24355016700429,,,,,ccw,60,-12,15,-15,1,lin,2,1,None,1,25,59,down,1,-1,81.22866100000101,81.24355016700429,81.84096600000339,81.75798595800006,82.32601337500091,82.32601337500091,82.47508525000012,0,ccw,demo,001,2025-02-09_19h50.12.686,05-adaptive-methods,2024.2.4,None,2025-02-09 19h50.17.655567 -0500,
82.48044129200571,,,,,ccw,60,-12,15,-15,1,lin,2,1,None,1,26,60,down,1,-1,82.47545195800194,82.48044129200571,83.07386033300281,82.99255354200432,83.56235983300576,83.56235983300576,83.70855933300481,1,cw,demo,001,2025-02-09_19h50.12.686,05-adaptive-methods,2024.2.4,None,2025-02-09 19h50.17.655567 -0500,
83.71355895799934,,,,,ccw,60,-12,15,-15,1,lin,2,1,None,1,27,61,down,1,-2,83.70891687500261,83.71355895799934,84.30716116700205,84.22590608300379,84.80938550000428,84.80938550000428,85.02490062500146,0,ccw,demo,001,2025-02-09_19h50.12.686,05-adaptive-methods,2024.2.4,None,2025-02-09 19h50.17.655567 -0500,
85.02979537500505,,,,,ccw,60,-12,15,-15,1,lin,2,1,None,1,28,62,down,1,-2,85.02520500000537,85.02979537500505,85.62389400000393,85.52788729200256,86.11004474999936,86.11004474999936,86.32781012500345,0,ccw,demo,001,2025-02-09_19h50.12.686,05-adaptive-methods,2024.2.4,None,2025-02-09 19h50.17.655567 -0500,
86.34296508300031,,,,,cw,60,12,15,-15,1,lin,1,2,None,0,24,63,up,1,2,86.32803687500564,86.34296508300031,86.92738100000133,86.84058079200622,87.42389445799927,87.42622937499982,87.57535733300028,1,cw,demo,001,2025-02-09_19h50.12.686,05-adaptive-methods,2024.2.4,None,2025-02-09 19h50.17.655567 -0500,
87.58044283300114,,,,,cw,60,12,15,-15,1,lin,1,2,None,0,25,64,down,1,1,87.57577925000078,87.58044283300114,88.17452341700118,88.07620341700385,88.6759555000026,88.6759555000026,88.72511441700044,1,cw,demo,001,2025-02-09_19h50.12.686,05-adaptive-methods,2024.2.4,None,2025-02-09 19h50.17.655567 -0500,
88.7300670830009,,,,,cw,60,12,15,-15,1,lin,1,2,None,0,26,65,down,1,1,88.72533875000227,88.7300670830009,89.32418120800139,89.24261995800043,89.80970475000504,89.82497787500324,89.97919812500186,0,ccw,demo,001,2025-02-09_19h50.12.686,05-adaptive-methods,2024.2.4,None,2025-02-09 19h50.17.655567 -0500,
89.9904807500061,,,,,cw,60,12,15,-15,1,lin,1,2,None,0,27,66,up,1,2,89.97964233300445,89.9904807500061,90.59113966700534,90.47613854200608,91.09176358300465,91.09176358300465,91.64218283300579,1,cw,demo,001,2025-02-09_19h50.12.686,05-adaptive-methods,2024.2.4,None,2025-02-09 19h50.17.655567 -0500,
91.647866875006,,,,,cw,60,12,15,-15,1,lin,1,2,None,0,28,67,up,1,2,91.64243604200601,91.647866875006,92.24051608300215,92.14328879200184,92.74133454200637,92.75800945800438,92.86240537500271,1,cw,demo,001,2025-02-09_19h50.12.686,05-adaptive-methods,2024.2.4,None,2025-02-09 19h50.17.655567 -0500,
92.8738325000013,,,,,ccw,60,-12,15,-15,1,lin,2,1,None,1,29,68,up,1,-1,92.86278304200096,92.8738325000013,93.4743503330028,93.37465487500594,93.95963362500333,93.95963362500333,94.07552908300568,0,ccw,demo,001,2025-02-09_19h50.12.686,05-adaptive-methods,2024.2.4,None,2025-02-09 19h50.17.655567 -0500,
94.08107245800056,,,,,cw,60,12,15,-15,1,lin,1,2,None,0,29,69,down,1,1,94.07586329200421,94.08107245800056,94.67668787500588,94.57647116700537,95.19134725000185,95.19134725000185,95.2773954170043,1,cw,demo,001,2025-02-09_19h50.12.686,05-adaptive-methods,2024.2.4,None,2025-02-09 19h50.17.655567 -0500,
95.29382304200408,,,,,ccw,60,-12,15,-15,1,lin,2,1,None,1,30,70,up,1,-1,95.27820258300198,95.29382304200408,95.87387158300407,95.79055670800153,96.37482095800078,96.39150287500524,96.47680558300635,0,ccw,demo,001,2025-02-09_19h50.12.686,05-adaptive-methods,2024.2.4,None,2025-02-09 19h50.17.655567 -0500,
96.48240254200209,,,,,cw,60,12,15,-15,1,lin,1,2,None,0,30,71,down,1,1,96.47716379200574,96.48240254200209,97.07380733299942,96.97617433300184,97.56120341700444,97.57561704200634,97.66188191700348,1,cw,demo,001,2025-02-09_19h50.12.686,05-adaptive-methods,2024.2.4,None,2025-02-09 19h50.17.655567 -0500,
97.67649687499943,,,,,cw,60,12,15,-15,1,lin,1,2,None,0,31,72,down,1,0,97.66232450000098,97.67649687499943,98.27656158299942,98.17383595800493,98.79112645800342,98.77455550000013,99.55904441700113,0,ccw,demo,001,2025-02-09_19h50.12.686,05-adaptive-methods,2024.2.4,None,2025-02-09 19h50.17.655567 -0500,
99.5646530830054,,,,,cw,60,12,15,-15,1,lin,1,2,None,0,32,73,up,1,1,99.55943583300541,99.5646530830054,100.15957125000568,100.07588412500627,100.65992250000272,100.65992250000272,100.92720983300387,1,cw,demo,001,2025-02-09_19h50.12.686,05-adaptive-methods,2024.2.4,None,2025-02-09 19h50.17.655567 -0500,
100.94297858299979,,,,,cw,60,12,15,-15,1,lin,1,2,None,0,33,74,up,1,1,100.92752733300586,100.94297858299979,101.52388008300477,101.44057983300445,102.02425083300477,102.02638845800539,102.4086537080002,0,ccw,demo,001,2025-02-09_19h50.12.686,05-adaptive-methods,2024.2.4,None,2025-02-09 19h50.17.655567 -0500,
102.41423616700195,,,,,ccw,60,-12,15,-15,1,lin,2,1,None,1,31,75,up,1,0,102.40890012500313,102.41423616700195,103.00827116700384,102.90975020800397,103.50723666699923,103.50723666699923,103.52916783300316,1,cw,demo,001,2025-02-09_19h50.12.686,05-adaptive-methods,2024.2.4,None,2025-02-09 19h50.17.655567 -0500,
103.54049912500341,,,,,cw,60,12,15,-15,1,lin,1,2,None,0,34,76,up,1,2,103.52965758299979,103.54049912500341,104.1296527500017,104.0279253330009,104.62605920799979,104.62605920799979,104.87528466700314,1,cw,demo,001,2025-02-09_19h50.12.686,05-adaptive-methods,2024.2.4,None,2025-02-09 19h50.17.655567 -0500,
104.88010950000171,,,,,ccw,60,-12,15,-15,1,lin,2,1,None,1,32,77,down,1,-1,104.87549487499928,104.88010950000171,105.4739715830001,105.39090916699934,105.95933879200311,105.97393700000248,106.59494612500566,0,ccw,demo,001,2025-02-09_19h50.12.686,05-adaptive-methods,2024.2.4,None,2025-02-09 19h50.17.655567 -0500,
106.60988854199968,,,,,cw,60,12,15,-15,1,lin,1,2,None,0,35,78,up,1,2,106.59543458300323,106.60988854199968,107.19067037500645,107.10718254200037,107.68032070800109,107.69266879200586,107.82624558300449,1,cw,demo,001,2025-02-09_19h50.12.686,05-adaptive-methods,2024.2.4,None,2025-02-09 19h50.17.655567 -0500,
107.84307512500527,,,,,cw,60,12,15,-15,1,lin,1,2,None,0,36,79,down,1,1,107.826639333005,107.84307512500527,108.44362562500464,108.3582987080008,108.94665287500538,108.94104104200233,109.05845920800493,1,cw,demo,001,2025-02-09_19h50.12.686,05-adaptive-methods,2024.2.4,None,2025-02-09 19h50.17.655567 -0500,
109.06375437500537,,,,,cw,60,12,15,-15,1,lin,1,2,None,0,37,80,down,1,1,109.05881245800265,109.06375437500537,109.65843479199975,109.5745983750021,110.15781858300033,110.15781858300033,110.22759995800152,1,cw,demo,001,2025-02-09_19h50.12.686,05-adaptive-methods,2024.2.4,None,2025-02-09 19h50.17.655567 -0500,
110.24297816699982,,,,,ccw,60,-12,15,-15,1,lin,2,1,None,1,33,81,down,1,-1,110.22787870799948,110.24297816699982,110.84115429200028,110.74054766700283,111.32964899999934,111.32964899999934,111.49365537500125,0,ccw,demo,001,2025-02-09_19h50.12.686,05-adaptive-methods,2024.2.4,None,2025-02-09 19h50.17.655567 -0500,
111.51021854200371,,,,,cw,60,12,15,-15,1,lin,1,2,None,0,38,82,down,1,0,111.49417604200426,111.51021854200371,112.09086666700023,112.02443383300124,112.57690325000294,112.59056566700019,112.6613997500026,1,cw,demo,001,2025-02-09_19h50.12.686,05-adaptive-methods,2024.2.4,None,2025-02-09 19h50.17.655567 -0500,
112.67387179200159,,,,,cw,60,12,15,-15,1,lin,1,2,None,0,39,83,down,1,0,112.66168216700316,112.67387179200159,113.27652641700115,113.15956762499991,113.79117566700006,113.77465800000209,114.20925420800631,1,cw,demo,001,2025-02-09_19h50.12.686,05-adaptive-methods,2024.2.4,None,2025-02-09 19h50.17.655567 -0500,
114.22612979200494,,,,,ccw,60,-12,15,-15,1,lin,2,1,None,1,34,84,up,1,0,114.20969704200252,114.22612979200494,114.8071889999992,114.7272976250024,115.30922670799919,115.30922670799919,115.4440487920001,1,cw,demo,001,2025-02-09_19h50.12.686,05-adaptive-methods,2024.2.4,None,2025-02-09 19h50.17.655567 -0500,
115.45970262500487,,,,,ccw,60,-12,15,-15,1,lin,2,1,None,1,35,85,down,1,-1,115.44425400000182,115.45970262500487,116.04095408300054,115.97434320799948,116.54144825000549,116.55795141700219,116.64499862500088,0,ccw,demo,001,2025-02-09_19h50.12.686,05-adaptive-methods,2024.2.4,None,2025-02-09 19h50.17.655567 -0500,
116.66054312500637,,,,,cw,60,12,15,-15,1,lin,1,2,None,0,40,86,down,1,-1,116.64591108300374,116.66054312500637,117.24387670800206,117.17630091700266,117.74058541699924,117.74058541699924,117.79179387500335,1,cw,demo,001,2025-02-09_19h50.12.686,05-adaptive-methods,2024.2.4,None,2025-02-09 19h50.17.655567 -0500,
117.7969030000022,,,,,ccw,60,-12,15,-15,1,lin,2,1,None,1,36,87,down,1,-1,117.79203583300114,117.7969030000022,118.39092945800076,118.30787850000343,118.87644191700383,118.89052208300564,118.99204304200248,1,cw,demo,001,2025-02-09_19h50.12.686,05-adaptive-methods,2024.2.4,None,2025-02-09 19h50.17.655567 -0500,
118.99768695800594,,,,,cw,60,12,15,-15,1,lin,1,2,None,0,41,88,down,1,-1,118.99258687499969,118.99768695800594,119.6077107920064,119.50863600000594,120.09473641700606,120.0905845830057,120.40852712500055,0,ccw,demo,001,2025-02-09_19h50.12.686,05-adaptive-methods,2024.2.4,None,2025-02-09 19h50.17.655567 -0500,
120.4139383330039,,,,,ccw,60,-12,15,-15,1,lin,2,1,None,1,37,89,down,1,-2,120.40879895800026,120.4139383330039,121.007198875006,120.91118854200613,121.50800370800425,121.50800370800425,121.94192804200429,0,ccw,demo,001,2025-02-09_19h50.12.686,05-adaptive-methods,2024.2.4,None,2025-02-09 19h50.17.655567 -0500,
121.94743912500417,,,,,cw,60,12,15,-15,1,lin,1,2,None,0,42,90,up,1,0,121.94232975000341,121.94743912500417,122.54136158300389,122.45823487500456,123.04280716700305,123.04280716700305,123.2749298330018,1,cw,demo,001,2025-02-09_19h50.12.686,05-adaptive-methods,2024.2.4,None,2025-02-09 19h50.17.655567 -0500,
123.27983354200114,,,,,ccw,60,-12,15,-15,1,lin,2,1,None,1,38,91,down,1,-2,123.27513654200447,123.27983354200114,123.87697400000616,123.77650658300263,124.37387158300407,124.37387158300407,124.4418529579998,1,cw,demo,001,2025-02-09_19h50.12.686,05-adaptive-methods,2024.2.4,None,2025-02-09 19h50.17.655567 -0500,
124.4471562079998,,,,,ccw,60,-12,15,-15,1,lin,2,1,None,1,39,92,down,1,-3,124.44221641700278,124.4471562079998,125.04059816700465,124.95772712500184,125.52909500000533,125.54053404200386,125.70848620800098,1,cw,demo,001,2025-02-09_19h50.12.686,05-adaptive-methods,2024.2.4,None,2025-02-09 19h50.17.655567 -0500,
125.71328216700203,,,,,cw,60,12,15,-15,1,lin,1,2,None,0,43,93,up,1,0,125.7086816670053,125.71328216700203,126.30804658300622,126.2097977920057,126.80796416700468,126.80796416700468,126.97837837500265,1,cw,demo,001,2025-02-09_19h50.12.686,05-adaptive-methods,2024.2.4,None,2025-02-09 19h50.17.655567 -0500,
126.9905159580012,,,,,cw,60,12,15,-15,1,lin,1,2,None,0,44,94,down,1,-1,126.97885741700156,126.9905159580012,127.5918726670061,127.49117341700185,128.0792870830046,128.0792870830046,128.1957043750008,0,ccw,demo,001,2025-02-09_19h50.12.686,05-adaptive-methods,2024.2.4,None,2025-02-09 19h50.17.655567 -0500,
128.20724150000024,,,,,ccw,60,-12,15,-15,1,lin,2,1,None,1,40,95,down,1,-4,128.19591150000633,128.20724150000024,128.81114916700608,128.70811583300383,129.307472667002,129.29087112500565,129.57530637500167,0,ccw,demo,001,2025-02-09_19h50.12.686,05-adaptive-methods,2024.2.4,None,2025-02-09 19h50.17.655567 -0500,
129.5808933330045,,,,,cw,60,12,15,-15,1,lin,1,2,None,0,45,96,up,1,0,129.57571275000373,129.5808933330045,130.1738365830024,130.07616291700106,130.67760812500637,130.67760812500637,130.82939558300131,1,cw,demo,001,2025-02-09_19h50.12.686,05-adaptive-methods,2024.2.4,None,2025-02-09 19h50.17.655567 -0500,
130.84053370800393,,,,,cw,60,12,15,-15,1,lin,1,2,None,0,46,97,up,1,0,130.82964312500553,130.84053370800393,131.43189695800538,131.34163345800334,131.92630387499958,131.92630387499958,132.22678925000218,1,cw,demo,001,2025-02-09_19h50.12.686,05-adaptive-methods,2024.2.4,None,2025-02-09 19h50.17.655567 -0500,
132.2432033330042,,,,,cw,60,12,15,-15,1,lin,1,2,None,0,47,98,down,1,-1,132.22729283300578,132.2432033330042,132.82609587500338,132.74270666700613,133.32384612500027,133.32384612500027,134.44400704200234,0,ccw,demo,001,2025-02-09_19h50.12.686,05-adaptive-methods,2024.2.4,None,2025-02-09 19h50.17.655567 -0500,
134.45753970800433,,,,,ccw,60,-12,15,-15,1,lin,2,1,None,1,41,99,down,1,-4,134.4442510420049,134.45753970800433,135.05800691700279,134.95845912500226,135.54641200000333,135.54111666700192,135.758389542003,0,ccw,demo,001,2025-02-09_19h50.12.686,05-adaptive-methods,2024.2.4,None,2025-02-09 19h50.17.655567 -0500,
135.76346837500023,,,,,cw,60,12,15,-15,1,lin,1,2,None,0,48,100,up,1,0,135.75874337500136,135.76346837500023,136.3578449580018,136.27529183300067,136.8580075830032,136.8580075830032,136.99484337500326,1,cw,demo,001,2025-02-09_19h50.12.686,05-adaptive-methods,2024.2.4,None,2025-02-09 19h50.17.655567 -0500,
137.01078241700452,,,,,ccw,60,-12,15,-15,1,lin,2,1,None,1,42,101,up,1,-3,136.99543633300345,137.01078241700452,137.60807158300304,137.52447858300002,138.09243654199963,138.09243654199963,138.15815458300494,0,ccw,demo,001,2025-02-09_19h50.12.686,05-adaptive-methods,2024.2.4,None,2025-02-09 19h50.17.655567 -0500,
138.16309212500346,,,,,ccw,60,-12,15,-15,1,lin,2,1,None,1,43,102,up,1,-3,138.15848299999925,138.16309212500346,138.7580615420011,138.6612021250039,139.25947579200147,139.25947579200147,139.45841745800135,0,ccw,demo,001,2025-02-09_19h50.12.686,05-adaptive-methods,2024.2.4,None,2025-02-09 19h50.17.655567 -0500,
139.46358408300148,,,,,cw,60,12,15,-15,1,lin,1,2,None,0,49,103,up,1,0,139.45864929200616,139.46358408300148,140.0587431669992,139.96222500000295,140.55718170800537,140.55718170800537,140.7429758750004,1,cw,demo,001,2025-02-09_19h50.12.686,05-adaptive-methods,2024.2.4,None,2025-02-09 19h50.17.655567 -0500,
140.74812037499942,,,,,cw,60,12,15,-15,1,lin,1,2,None,0,50,104,down,1,-1,140.7433982500006,140.74812037499942,141.34084429200448,141.25977570800023,141.82631250000122,141.84060783300083,142.37541395800508,1,cw,demo,001,2025-02-09_19h50.12.686,05-adaptive-methods,2024.2.4,None,2025-02-09 19h50.17.655567 -0500,
142.380893708003,,,,,ccw,60,-12,15,-15,1,lin,2,1,None,1,44,105,up,1,-2,142.3757956670015,142.380893708003,142.9768509170026,142.89282870800525,143.47397716699925,143.47397716699925,143.6945673750015,1,cw,demo,001,2025-02-09_19h50.12.686,05-adaptive-methods,2024.2.4,None,2025-02-09 19h50.17.655567 -0500,
143.7101063750015,,,,,cw,60,12,15,-15,1,lin,1,2,None,0,51,106,down,1,-1,143.69491775000643,143.7101063750015,144.30955779200303,144.21020679200592,144.80740766700183,144.79618045800453,144.8585882920015,0,ccw,demo,001,2025-02-09_19h50.12.686,05-adaptive-methods,2024.2.4,None,2025-02-09 19h50.17.655567 -0500,
144.86371987500024,,,,,ccw,60,-12,15,-15,1,lin,2,1,None,1,45,107,down,1,-3,144.8588105420058,144.86371987500024,145.45714283300185,145.35955504199956,145.9592505000037,145.9592505000037,146.1769894579993,0,ccw,demo,001,2025-02-09_19h50.12.686,05-adaptive-methods,2024.2.4,None,2025-02-09 19h50.17.655567 -0500,
146.19092737500614,,,,,cw,60,12,15,-15,1,lin,1,2,None,0,52,108,up,1,0,146.17725274999975,146.19092737500614,146.773924000001,146.676321458006,147.26003716700507,147.27389100000437,147.72627945800195,1,cw,demo,001,2025-02-09_19h50.12.686,05-adaptive-methods,2024.2.4,None,2025-02-09 19h50.17.655567 -0500,
147.74092433300393,,,,,ccw,60,-12,15,-15,1,lin,2,1,None,1,46,109,down,1,-3,147.72656308300066,147.74092433300393,148.3238635000016,148.22638179200294,148.82752425000217,148.82752425000217,148.9774359580042,0,ccw,demo,001,2025-02-09_19h50.12.686,05-adaptive-methods,2024.2.4,None,2025-02-09 19h50.17.655567 -0500,
148.99309633300436,,,,,cw,60,12,15,-15,1,lin,1,2,None,0,53,110,up,1,0,148.9778585830063,148.99309633300436,149.59088245800376,149.49052287499944,150.076562000002,150.076562000002,150.2297457080058,1,cw,demo,001,2025-02-09_19h50.12.686,05-adaptive-methods,2024.2.4,None,2025-02-09 19h50.17.655567 -0500,
150.24056933300017,,,,,cw,60,12,15,-15,1,lin,1,2,None,0,54,111,down,1,-1,150.22997920800117,150.24056933300017,150.8411065420005,150.74117183300405,151.3265608330039,151.3265608330039,151.4430967080043,0,ccw,demo,001,2025-02-09_19h50.12.686,05-adaptive-methods,2024.2.4,None,2025-02-09 19h50.17.655567 -0500,
151.46063225000398,,,,,ccw,60,-12,15,-15,1,lin,2,1,None,1,47,112,up,1,-2,151.44361691700033,151.46063225000398,152.0405405000056,151.95723545800138,152.54268508300447,152.54268508300447,152.67699875000108,0,ccw,demo,001,2025-02-09_19h50.12.686,05-adaptive-methods,2024.2.4,None,2025-02-09 19h50.17.655567 -0500,
152.69345295800304,,,,,cw,60,12,15,-15,1,lin,1,2,None,0,55,113,up,1,0,152.67718816699926,152.69345295800304,153.27533841700642,153.19058433300233,153.77397645800374,153.77397645800374,153.89213716700033,0,ccw,demo,001,2025-02-09_19h50.12.686,05-adaptive-methods,2024.2.4,None,2025-02-09 19h50.17.655567 -0500,
153.89716308300558,,,,,cw,60,12,15,-15,1,lin,1,2,None,0,56,114,up,1,1,153.89254462499957,153.89716308300558,154.49058837500343,154.39471374999994,154.992978125003,154.992978125003,155.608565292001,1,cw,demo,001,2025-02-09_19h50.12.686,05-adaptive-methods,2024.2.4,None,2025-02-09 19h50.17.655567 -0500,
155.61369395800284,,,,,cw,60,12,15,-15,1,lin,1,2,None,0,57,115,up,1,1,155.60877779200382,155.61369395800284,156.21062941700075,156.1244836670012,156.7086709580035,156.7086709580035,157.02526454200415,1,cw,demo,001,2025-02-09_19h50.12.686,05-adaptive-methods,2024.2.4,None,2025-02-09 19h50.17.655567 -0500,
157.03039362500567,,,,,ccw,60,-12,15,-15,1,lin,2,1,None,1,48,116,up,1,-2,157.02562983300595,157.03039362500567,157.62385645800532,157.52644333300123,158.12482950000413,158.12482950000413,158.24435050000466,0,ccw,demo,001,2025-02-09_19h50.12.686,05-adaptive-methods,2024.2.4,None,2025-02-09 19h50.17.655567 -0500,
158.25965270800225,,,,,cw,60,12,15,-15,1,lin,1,2,None,0,58,117,down,1,0,158.24466983300226,158.25965270800225,158.84319237500313,158.75967654200213,159.34052441700624,159.34567204199993,159.67758354200487,1,cw,demo,001,2025-02-09_19h50.12.686,05-adaptive-methods,2024.2.4,None,2025-02-09 19h50.17.655567 -0500,
159.69049454200285,,,,,cw,60,12,15,-15,1,lin,1,2,None,0,59,118,down,1,0,159.67797850000352,159.69049454200285,160.29120729200076,160.19191245800175,160.7927686250041,160.7927686250041,161.258809458006,1,cw,demo,001,2025-02-09_19h50.12.686,05-adaptive-methods,2024.2.4,None,2025-02-09 19h50.17.655567 -0500,
161.26489791700442,,,,,cw,60,12,15,-15,1,lin,1,2,None,0,60,119,down,1,-1,161.25925945800554,161.26489791700442,161.85791850000533,161.77460033300304,162.34325041700504,162.35723429200152,162.60878200000298,0,ccw,demo,001,2025-02-09_19h50.12.686,05-adaptive-methods,2024.2.4,None,2025-02-09 19h50.17.655567 -0500,
162.61458129200037,,,,,ccw,60,-12,15,-15,1,lin,2,1,None,1,49,120,up,1,-1,162.60937016700336,162.61458129200037,163.20715608300088,163.1094705420037,163.70972625000286,163.70972625000286,163.82764516700263,1,cw,demo,001,2025-02-09_19h50.12.686,05-adaptive-methods,2024.2.4,None,2025-02-09 19h50.17.655567 -0500,
163.84304725000402,,,,,ccw,60,-12,15,-15,1,lin,2,1,None,1,50,121,down,1,-2,163.82800500000303,163.84304725000402,164.42386370800523,164.34052404200338,164.92509033300303,164.94257816699974,165.27537741700507,0,ccw,demo,001,2025-02-09_19h50.12.686,05-adaptive-methods,2024.2.4,None,2025-02-09 19h50.17.655567 -0500,
165.281095792001,,,,,ccw,60,-12,15,-15,1,lin,2,1,None,1,51,122,down,1,-2,165.27591029200266,165.281095792001,165.87479225000425,165.79101237500436,166.35955100000137,166.37384591700538,166.6461386670053,0,ccw,demo,001,2025-02-09_19h50.12.686,05-adaptive-methods,2024.2.4,None,2025-02-09 19h50.17.655567 -0500,
166.65951337500155,,,,,ccw,60,-12,15,-15,1,lin,2,1,None,1,52,123,up,1,-1,166.64664320800512,166.65951337500155,167.24329450000369,167.17427141700318,167.740503042005,167.74435654200352,167.89207516700117,0,ccw,demo,001,2025-02-09_19h50.12.686,05-adaptive-methods,2024.2.4,None,2025-02-09 19h50.17.655567 -0500,
167.89777279200644,,,,,ccw,60,-12,15,-15,1,lin,2,1,None,1,53,124,up,1,-1,167.89251133300422,167.89777279200644,168.49118045800424,168.3928754580047,168.9930075000011,168.9930075000011,169.19425454200245,1,cw,demo,001,2025-02-09_19h50.12.686,05-adaptive-methods,2024.2.4,None,2025-02-09 19h50.17.655567 -0500,
169.20709845800593,,,,,ccw,60,-12,15,-15,1,lin,2,1,None,1,54,125,down,1,-2,169.19452266699955,169.20709845800593,169.79053733299952,169.69475520800188,170.27623750000203,170.30777666700305,170.46113937500195,0,ccw,demo,001,2025-02-09_19h50.12.686,05-adaptive-methods,2024.2.4,None,2025-02-09 19h50.17.655567 -0500,
170.47609733300487,,,,,ccw,60,-12,15,-15,1,lin,2,1,None,1,55,126,down,1,-2,170.46160633300315,170.47609733300487,171.05971262499952,170.97379541700502,171.55724358300358,171.5598815830017,171.65846141700604,0,ccw,demo,001,2025-02-09_19h50.12.686,05-adaptive-methods,2024.2.4,None,2025-02-09 19h50.17.655567 -0500,
171.66356720800104,,,,,ccw,60,-12,15,-15,1,lin,2,1,None,1,56,127,up,1,-1,171.6588267920015,171.66356720800104,172.25787208300608,172.1592565000028,172.7428539579996,172.75721700000577,173.0588637500041,1,cw,demo,001,2025-02-09_19h50.12.686,05-adaptive-methods,2024.2.4,None,2025-02-09 19h50.17.655567 -0500,
173.0643990000026,,,,,ccw,60,-12,15,-15,1,lin,2,1,None,1,57,128,down,1,-2,173.0592456670056,173.0643990000026,173.65719833299954,173.56115066700295,174.14438029200392,174.1569000830059,174.32745675000479,0,ccw,demo,001,2025-02-09_19h50.12.686,05-adaptive-methods,2024.2.4,None,2025-02-09 19h50.17.655567 -0500,
174.34052200000588,,,,,ccw,60,-12,15,-15,1,lin,2,1,None,1,58,129,down,1,-2,174.32782262500405,174.34052200000588,174.92678054200223,174.84269541700633,175.42585595800483,175.442941375004,175.5435405419994,0,ccw,demo,001,2025-02-09_19h50.12.686,05-adaptive-methods,2024.2.4,None,2025-02-09 19h50.17.655567 -0500,
175.55939979200048,,,,,ccw,60,-12,15,-15,1,lin,2,1,None,1,59,130,up,1,-1,175.54387637500622,175.55939979200048,176.14051525000104,176.05721712500235,176.64269883300585,176.64269883300585,176.96111075000226,0,ccw,demo,001,2025-02-09_19h50.12.686,05-adaptive-methods,2024.2.4,None,2025-02-09 19h50.17.655567 -0500,
176.97394600000553,,,,,ccw,60,-12,15,-15,1,lin,2,1,None,1,60,131,up,1,-1,176.9614877500062,176.97394600000553,177.57447745800164,177.45963133300393,178.0612897500032,178.0612897500032,178.13247541700548,0,ccw,demo,001,2025-02-09_19h50.12.686,05-adaptive-methods,2024.2.4,None,2025-02-09 19h50.17.655567 -0500,
