contrast_1,contrast_2,thisN,thisTrialN,thisRepN,key_resp.keys,key_resp.rt,key_resp.duration,trials.thisRepN,trials.thisTrialN,trials.thisN,trials.thisIndex,thisRow.t,notes,trial.started,grating.started,noise.started,grating.stopped,noise.stopped,grating_2.started,noise_2.started,grating_2.stopped,noise_2.stopped,key_resp.started,trial.stopped,trials.key_resp.keys,trials.key_resp.rt,trials.key_resp.duration,participant,session,date,expName,expVersion,psychopyVersion,frameRate,expStart,
0.0,0.3,0,0,0,2,7.022131707984954,None,0,0,0,12,0.01477545901434496,,0.00903979199938476,0.01477545901434496,0.01477545901434496,0.5110921250015963,0.5110921250015963,0.605460959021002,0.605460959021002,1.097984959022142,1.097984959022142,1.097984959022142,8.261706250021234,2,7.022131707984954,None,097127,001,2026-04-23_02h55.39.567,contrast-detection,,2025.2.4,None,2026-04-23 02h55.39.585036 -0400,
0.0001,0.0,1,1,0,1,0.8479765829979442,None,0,1,1,0,8.26757183400332,,8.26180433400441,8.26757183400332,8.26757183400332,8.764949667005567,8.764949667005567,8.850195209000958,8.850195209000958,9.347966250003083,9.347966250003083,9.347966250003083,10.199315208999906,1,0.8479765829979442,None,097127,001,2026-04-23_02h55.39.567,contrast-detection,,2025.2.4,None,2026-04-23 02h55.39.585036 -0400,
0.3,0.0,2,2,0,1,1.266765958018368,None,0,2,2,5,10.211055459018098,,10.199731041997438,10.211055459018098,10.211055459018098,10.698245167004643,10.698245167004643,10.794781959004467,10.794781959004467,11.281113542005187,11.281113542005187,11.29779491701629,12.56690362500376,1,1.266765958018368,None,097127,001,2026-04-23_02h55.39.567,contrast-detection,,2025.2.4,None,2026-04-23 02h55.39.585036 -0400,
0.001,0.0,3,3,0,2,2.4930316249956377,None,0,3,3,1,12.583456374995876,,12.567331583995838,12.583456374995876,12.583456374995876,13.081487417017343,13.081487417017343,13.166946250014007,13.166946250014007,13.664515625016065,13.664515625016065,13.664515625016065,16.16387062499416,2,2.4930316249956377,None,097127,001,2026-04-23_02h55.39.567,contrast-detection,,2025.2.4,None,2026-04-23 02h55.39.585036 -0400,
0.0,0.0001,4,4,0,2,0.77291441601119,None,0,4,4,7,16.173347500007367,,16.164318584022112,16.173347500007367,16.173347500007367,16.66537075000815,16.66537075000815,16.761215167003684,16.761215167003684,17.24905400001444,17.24905400001444,17.261505917005707,18.047087375016417,2,0.77291441601119,None,097127,001,2026-04-23_02h55.39.567,contrast-detection,,2025.2.4,None,2026-04-23 02h55.39.585036 -0400,
0.0,0.6,5,5,0,2,0.27565249902545474,None,0,5,5,13,18.057748542021727,,18.047555209021084,18.057748542021727,18.057748542021727,18.54829183401307,18.54829183401307,18.64471812499687,18.64471812499687,19.131494875007775,19.131494875007775,19.144858834013576,19.42991595901549,2,0.27565249902545474,None,097127,001,2026-04-23_02h55.39.567,contrast-detection,,2025.2.4,None,2026-04-23 02h55.39.585036 -0400,
0.0,0.03,6,6,0,1,0.3814643750083633,None,0,6,6,10,19.440598667017184,,19.430518459004816,19.440598667017184,19.440598667017184,19.93068950000452,19.93068950000452,20.02784879200044,20.02784879200044,20.514778334007133,20.514778334007133,20.528653625020524,20.91416479201871,1,0.3814643750083633,None,097127,001,2026-04-23_02h55.39.567,contrast-detection,,2025.2.4,None,2026-04-23 02h55.39.585036 -0400,
0.0,0.01,7,7,0,1,0.5261636250070296,None,0,7,7,9,20.923603000002913,,20.91449629201088,20.923603000002913,20.923603000002913,21.414769167022314,21.414769167022314,21.511037334013963,21.511037334013963,21.999128334020497,21.999128334020497,22.011191541998414,22.54723479200038,1,0.5261636250070296,None,097127,001,2026-04-23_02h55.39.567,contrast-detection,,2025.2.4,None,2026-04-23 02h55.39.585036 -0400,
0.0,0.001,8,8,0,1,0.7797645830141846,None,0,8,8,8,22.55790170902037,,22.547799916996155,22.55790170902037,22.55790170902037,23.04913816699991,23.04913816699991,23.144568959018216,23.144568959018216,23.631160749995615,23.631160749995615,23.644554625003366,24.43340612499742,1,0.7797645830141846,None,097127,001,2026-04-23_02h55.39.567,contrast-detection,,2025.2.4,None,2026-04-23 02h55.39.585036 -0400,
0.03,0.0,9,9,0,1,0.2631000000110362,None,0,9,9,3,24.44370208401233,,24.433842084021308,24.44370208401233,24.44370208401233,24.945342749997508,24.945342749997508,25.045449334022123,25.045449334022123,25.532163958996534,25.532163958996534,25.532163958996534,25.81427195901051,1,0.2631000000110362,None,097127,001,2026-04-23_02h55.39.567,contrast-detection,,2025.2.4,None,2026-04-23 02h55.39.585036 -0400,
0.6,0.0,10,10,0,1,0.7838104160036892,None,0,10,10,6,25.82801195900538,,25.814730000012787,25.82801195900538,25.82801195900538,26.314049375010654,26.314049375010654,26.411170917010168,26.411170917010168,26.897694750019582,26.897694750019582,26.91137124999659,27.70050616702065,1,0.7838104160036892,None,097127,001,2026-04-23_02h55.39.567,contrast-detection,,2025.2.4,None,2026-04-23 02h55.39.585036 -0400,
0.01,0.0,11,11,0,2,1.1472479989752173,None,0,11,11,2,27.71055937500205,,27.700953709019814,27.71055937500205,27.71055937500205,28.198727334005525,28.198727334005525,28.30072129200562,28.30072129200562,28.79793383399374,28.79793383399374,28.79793383399374,29.951059375016484,2,1.1472479989752173,None,097127,001,2026-04-23_02h55.39.567,contrast-detection,,2025.2.4,None,2026-04-23 02h55.39.585036 -0400,
0.0,0.1,12,12,0,2,0.24993387499125674,None,0,12,12,11,29.978133041993715,,29.95149579201825,29.978133041993715,29.978133041993715,30.465091709018452,30.465091709018452,30.55092379200505,30.55092379200505,31.04820595899946,31.04820595899946,31.04820595899946,31.313490625005215,2,0.24993387499125674,None,097127,001,2026-04-23_02h55.39.567,contrast-detection,,2025.2.4,None,2026-04-23 02h55.39.585036 -0400,
0.1,0.0,13,13,0,1,1.5520763749955222,None,0,13,13,4,31.323793792020297,,31.314003209001385,31.323793792020297,31.323793792020297,31.814308834000258,31.814308834000258,31.91164249999565,31.91164249999565,32.41189179199864,32.41189179199864,32.42801720902207,33.983204999996815,1,1.5520763749955222,None,097127,001,2026-04-23_02h55.39.567,contrast-detection,,2025.2.4,None,2026-04-23 02h55.39.585036 -0400,
0.0,0.01,14,0,1,1,0.5057650830131024,None,1,0,14,9,33.99340208401554,,33.983626166998874,33.99340208401554,33.99340208401554,34.48101950000273,34.48101950000273,34.583159917005105,34.583159917005105,35.07785154200974,35.07785154200974,35.08131154201692,35.5965072090039,1,0.5057650830131024,None,097127,001,2026-04-23_02h55.39.567,contrast-detection,,2025.2.4,None,2026-04-23 02h55.39.585036 -0400,
0.0,0.001,15,1,1,2,0.5050673740042839,None,1,1,15,8,35.60690541702206,,35.597057792008854,35.60690541702206,35.60690541702206,36.098242417006986,36.098242417006986,36.19447941699764,36.19447941699764,36.68084524999722,36.68084524999722,36.69489300000714,37.21309829200618,2,0.5050673740042839,None,097127,001,2026-04-23_02h55.39.567,contrast-detection,,2025.2.4,None,2026-04-23 02h55.39.585036 -0400,
0.3,0.0,16,2,1,1,1.395399915985763,None,1,2,16,5,37.22363041702192,,37.213684625021415,37.22363041702192,37.22363041702192,37.714547209005104,37.714547209005104,37.81105687501258,37.81105687501258,38.29803904201253,38.29803904201253,38.311032625002554,39.71360462499433,1,1.395399915985763,None,097127,001,2026-04-23_02h55.39.567,contrast-detection,,2025.2.4,None,2026-04-23 02h55.39.585036 -0400,
0.1,0.0,17,3,1,2,2.260332665988244,None,1,3,17,4,39.72795920900535,,39.714074667019304,39.72795920900535,39.72795920900535,40.214142834011,40.214142834011,40.311154584022006,40.311154584022006,40.797735875006765,40.797735875006765,40.811587125004735,43.07982670899946,2,2.260332665988244,None,097127,001,2026-04-23_02h55.39.567,contrast-detection,,2025.2.4,None,2026-04-23 02h55.39.585036 -0400,
0.0001,0.0,18,4,1,1,1.859070333011914,None,1,4,18,0,43.09025170901441,,43.08037150002201,43.09025170901441,43.09025170901441,43.58198912499938,43.58198912499938,43.677854292007396,43.677854292007396,44.16459729199414,44.16459729199414,44.177854750014376,46.0468455000082,1,1.859070333011914,None,097127,001,2026-04-23_02h55.39.567,contrast-detection,,2025.2.4,None,2026-04-23 02h55.39.585036 -0400,
0.0,0.0001,19,5,1,2,1.2572439160139766,None,1,5,19,7,46.0573332089989,,46.04741304201889,46.0573332089989,46.0573332089989,46.54743183401297,46.54743183401297,46.64642308402108,46.64642308402108,47.14449537501787,47.14449537501787,47.14449537501787,48.41304387501441,2,1.2572439160139766,None,097127,001,2026-04-23_02h55.39.567,contrast-detection,,2025.2.4,None,2026-04-23 02h55.39.585036 -0400,
0.6,0.0,20,6,1,1,3.572902874991996,None,1,6,20,6,48.4235274590028,,48.41362920901156,48.4235274590028,48.4235274590028,48.91461495900876,48.91461495900876,49.011268542002654,49.011268542002654,49.498090125009185,49.498090125009185,49.511258625017945,53.0970187500061,1,3.572902874991996,None,097127,001,2026-04-23_02h55.39.567,contrast-detection,,2025.2.4,None,2026-04-23 02h55.39.585036 -0400,
0.0,0.3,21,7,1,2,0.3603309580066707,None,1,7,21,12,53.10730712499935,,53.09752091701375,53.10730712499935,53.10730712499935,53.59773787501035,53.59773787501035,53.69465350001701,53.69465350001701,54.181416542007355,54.181416542007355,54.19441683401237,54.5636037090153,2,0.3603309580066707,None,097127,001,2026-04-23_02h55.39.567,contrast-detection,,2025.2.4,None,2026-04-23 02h55.39.585036 -0400,
0.0,0.6,22,8,1,2,0.2468589170021005,None,1,8,22,13,54.574053959018784,,54.5642511670012,54.574053959018784,54.574053959018784,55.06460725000943,55.06460725000943,55.16108908399474,55.16108908399474,55.647269500012044,55.647269500012044,55.66098495901679,55.91474016700522,2,0.2468589170021005,None,097127,001,2026-04-23_02h55.39.567,contrast-detection,,2025.2.4,None,2026-04-23 02h55.39.585036 -0400,
0.01,0.0,23,9,1,2,1.9545720409951173,None,1,9,23,2,55.92483745899517,,55.91522187500959,55.92483745899517,55.92483745899517,56.413994000002276,56.413994000002276,56.511325458996,56.511325458996,56.99738462502137,56.99738462502137,57.01109195899335,58.979791749996366,2,1.9545720409951173,None,097127,001,2026-04-23_02h55.39.567,contrast-detection,,2025.2.4,None,2026-04-23 02h55.39.585036 -0400,
0.0,0.03,24,10,1,2,0.7028295409982093,None,1,10,24,10,58.99032904201886,,58.98034212499624,58.99032904201886,58.99032904201886,59.481290833995445,59.481290833995445,59.577870542008895,59.577870542008895,60.06575570901623,60.06575570901623,60.07775754202157,60.78274833399337,2,0.7028295409982093,None,097127,001,2026-04-23_02h55.39.567,contrast-detection,,2025.2.4,None,2026-04-23 02h55.39.585036 -0400,
0.03,0.0,25,11,1,1,0.3997773749870248,None,1,11,25,3,60.79353933400125,,60.78318383402075,60.79353933400125,60.79353933400125,61.28144099999918,61.28144099999918,61.382780792017,61.382780792017,61.87776649999432,61.87776649999432,61.87776649999432,62.28227712502121,1,0.3997773749870248,None,097127,001,2026-04-23_02h55.39.567,contrast-detection,,2025.2.4,None,2026-04-23 02h55.39.585036 -0400,
0.0,0.1,26,12,1,2,1.037661583017325,None,1,12,26,11,62.29420500001288,,62.28258712499519,62.29420500001288,62.29420500001288,62.78228595899418,62.78228595899418,62.88439012502204,62.88439012502204,63.381697083998006,63.381697083998006,63.37782970900298,64.41744683400611,2,1.037661583017325,None,097127,001,2026-04-23_02h55.39.567,contrast-detection,,2025.2.4,None,2026-04-23 02h55.39.585036 -0400,
0.001,0.0,27,13,1,2,1.9455396250123158,None,1,13,27,1,64.42723283401574,,64.41809454199392,64.42723283401574,64.42723283401574,64.91429308400257,64.91429308400257,65.01659850002034,65.01659850002034,65.51093704201048,65.51093704201048,65.51393229200039,67.46304941701237,2,1.9455396250123158,None,097127,001,2026-04-23_02h55.39.567,contrast-detection,,2025.2.4,None,2026-04-23 02h55.39.585036 -0400,
0.01,0.0,28,0,2,1,0.9832484160142485,None,2,0,28,2,67.47370666702045,,67.46353241699398,67.47370666702045,67.47370666702045,67.96442691699485,67.96442691699485,68.06137795900577,68.06137795900577,68.54789220899693,68.54789220899693,68.56110204200377,69.54691604201798,1,0.9832484160142485,None,097127,001,2026-04-23_02h55.39.567,contrast-detection,,2025.2.4,None,2026-04-23 02h55.39.585036 -0400,
0.0,0.6,29,1,2,2,0.7559546669945121,None,2,1,29,13,69.55752741699689,,69.54750583399436,69.55752741699689,69.55752741699689,70.0475591669965,70.0475591669965,70.14445095902192,70.14445095902192,70.63147774999379,70.63147774999379,70.64437287501642,71.41460995899979,2,0.7559546669945121,None,097127,001,2026-04-23_02h55.39.567,contrast-detection,,2025.2.4,None,2026-04-23 02h55.39.585036 -0400,
0.3,0.0,30,2,2,1,0.40574737498536706,None,2,2,30,5,71.4245947090094,,71.41515241700108,71.4245947090094,71.4245947090094,71.91570304200286,71.91570304200286,72.01105945900781,72.01105945900781,72.49836662501912,72.49836662501912,72.51152250001905,72.92957216702052,1,0.40574737498536706,None,097127,001,2026-04-23_02h55.39.567,contrast-detection,,2025.2.4,None,2026-04-23 02h55.39.585036 -0400,
0.0001,0.0,31,3,2,1,0.605297458008863,None,2,3,31,0,72.9396347500151,,72.93013024999527,72.9396347500151,72.9396347500151,73.43078575000982,73.43078575000982,73.52790600000299,73.52790600000299,74.01458099999581,74.01458099999581,74.02791829200578,74.64683608399355,1,0.605297458008863,None,097127,001,2026-04-23_02h55.39.567,contrast-detection,,2025.2.4,None,2026-04-23 02h55.39.585036 -0400,
0.6,0.0,32,4,2,1,1.1489042909815907,None,2,4,32,6,74.65722158399876,,74.64737375002005,74.65722158399876,74.65722158399876,75.1488667090016,75.1488667090016,75.24458658401272,75.24458658401272,75.73141829200904,75.73141829200904,75.7443459170172,76.89688008400844,1,1.1489042909815907,None,097127,001,2026-04-23_02h55.39.567,contrast-detection,,2025.2.4,None,2026-04-23 02h55.39.585036 -0400,
0.0,0.03,33,5,2,1,0.7898762080003507,None,2,5,33,10,76.90727562500979,,76.89741975002107,76.90727562500979,76.90727562500979,77.3987777089933,77.3987777089933,77.49410224999883,77.49410224999883,77.99495358401327,77.99495358401327,78.01227670902153,78.81344079200062,1,0.7898762080003507,None,097127,001,2026-04-23_02h55.39.567,contrast-detection,,2025.2.4,None,2026-04-23 02h55.39.585036 -0400,
0.001,0.0,34,6,2,1,0.7268798750010319,None,2,6,34,1,78.82430654199561,,78.81407945899991,78.82430654199561,78.82430654199561,79.31516704201931,79.31516704201931,79.41168870902038,79.41168870902038,79.89835954201408,79.89835954201408,79.9113712090184,80.64648633400793,1,0.7268798750010319,None,097127,001,2026-04-23_02h55.39.567,contrast-detection,,2025.2.4,None,2026-04-23 02h55.39.585036 -0400,
0.03,0.0,35,7,2,1,0.16073637499357574,None,2,7,35,3,80.65695175001747,,80.64708362499368,80.65695175001747,80.65695175001747,81.14783525001258,81.14783525001258,81.24459350001416,81.24459350001416,81.73084420899977,81.73084420899977,81.744510834018,81.91302375000669,1,0.16073637499357574,None,097127,001,2026-04-23_02h55.39.567,contrast-detection,,2025.2.4,None,2026-04-23 02h55.39.585036 -0400,
0.0,0.001,36,8,2,1,0.5869541660067625,None,2,8,36,8,81.92332329199417,,81.91357291699387,81.92332329199417,81.92332329199417,82.41514883399941,82.41514883399941,82.51115166701493,82.51115166701493,82.99818895899807,82.99818895899807,83.01106849999633,83.6004460840195,1,0.5869541660067625,None,097127,001,2026-04-23_02h55.39.567,contrast-detection,,2025.2.4,None,2026-04-23 02h55.39.585036 -0400,
0.0,0.0001,37,9,2,2,0.5420677080110181,None,2,9,37,7,83.61048220901284,,83.6009881250211,83.61048220901284,83.61048220901284,84.09838058400783,84.09838058400783,84.20019445900107,84.20019445900107,84.69797750000726,84.69797750000726,84.69797750000726,85.24718204201781,2,0.5420677080110181,None,097127,001,2026-04-23_02h55.39.567,contrast-detection,,2025.2.4,None,2026-04-23 02h55.39.585036 -0400,
0.0,0.01,38,10,2,1,0.5036058749828953,None,2,10,38,9,85.2572340000188,,85.24770141701447,85.2572340000188,85.2572340000188,85.74810479200096,85.74810479200096,85.84460087501793,85.84460087501793,86.33085016699624,86.33085016699624,86.34433325001737,86.86350745899836,1,0.5036058749828953,None,097127,001,2026-04-23_02h55.39.567,contrast-detection,,2025.2.4,None,2026-04-23 02h55.39.585036 -0400,
0.0,0.3,39,11,2,2,0.949498833011603,None,2,11,39,12,86.87377495900728,,86.86408420899534,86.87377495900728,86.87377495900728,87.3641760419996,87.3641760419996,87.46113850001711,87.46113850001711,87.94731575000333,87.94731575000333,87.9608794170199,88.91353062499547,2,0.949498833011603,None,097127,001,2026-04-23_02h55.39.567,contrast-detection,,2025.2.4,None,2026-04-23 02h55.39.585036 -0400,
0.0,0.1,40,12,2,2,1.3800231250061188,None,2,12,40,11,88.92363604201819,,88.91390300000785,88.92363604201819,88.92363604201819,89.41413183399709,89.41413183399709,89.51101270900108,89.51101270900108,89.9981854170037,89.9981854170037,90.01095766702201,91.39654858401627,2,1.3800231250061188,None,097127,001,2026-04-23_02h55.39.567,contrast-detection,,2025.2.4,None,2026-04-23 02h55.39.585036 -0400,
0.1,0.0,41,13,2,1,1.5555524580122437,None,2,13,41,4,91.40713254199363,,91.39706375001697,91.40713254199363,91.40713254199363,91.8978667500196,91.8978667500196,91.99449379200814,91.99449379200814,92.4808136250067,92.4808136250067,92.49426287499955,94.06312525001704,1,1.5555524580122437,None,097127,001,2026-04-23_02h55.39.567,contrast-detection,,2025.2.4,None,2026-04-23 02h55.39.585036 -0400,
0.001,0.0,42,0,3,1,0.44595841597765684,None,3,0,42,1,94.07361295900773,,94.06369645899395,94.07361295900773,94.07361295900773,94.56496258400148,94.56496258400148,94.66127266699914,94.66127266699914,95.14721920900047,95.14721920900047,95.16094212501775,95.6136217089952,1,0.44595841597765684,None,097127,001,2026-04-23_02h55.39.567,contrast-detection,,2025.2.4,None,2026-04-23 02h55.39.585036 -0400,
0.6,0.0,43,1,3,2,7.060696916974848,None,3,1,43,6,95.62353370900382,,95.61397508400842,95.62353370900382,95.62353370900382,96.11428599999635,96.11428599999635,96.21096266701352,96.21096266701352,96.69866066699615,96.69866066699615,96.71104041699436,103.78078287499375,2,7.060696916974848,None,097127,001,2026-04-23_02h55.39.567,contrast-detection,,2025.2.4,None,2026-04-23 02h55.39.585036 -0400,
0.01,0.0,44,2,3,1,0.4142774580104742,None,3,2,44,2,103.79164820900769,,103.78141725002206,103.79164820900769,103.79164820900769,104.28211395899416,104.28211395899416,104.3778807920171,104.3778807920171,104.86622504200204,104.86622504200204,104.87803912500385,105.29641025001183,1,0.4142774580104742,None,097127,001,2026-04-23_02h55.39.567,contrast-detection,,2025.2.4,None,2026-04-23 02h55.39.585036 -0400,
0.0,0.3,45,3,3,2,0.31102095800451934,None,3,3,45,12,105.30663570901379,,105.29697041699546,105.30663570901379,105.30663570901379,105.79968483399716,105.79968483399716,105.89449200002127,105.89449200002127,106.38246583400178,106.38246583400178,106.39431274999515,106.71343820900074,2,0.31102095800451934,None,097127,001,2026-04-23_02h55.39.567,contrast-detection,,2025.2.4,None,2026-04-23 02h55.39.585036 -0400,
0.03,0.0,46,4,3,1,0.11120558300171979,None,3,4,46,3,106.72367525001755,,106.71399449999444,106.72367525001755,106.72367525001755,107.21516283400706,107.21516283400706,107.31085408400395,107.31085408400395,107.79881050001131,107.79881050001131,107.81105816701893,107.92964262500755,1,0.11120558300171979,None,097127,001,2026-04-23_02h55.39.567,contrast-detection,,2025.2.4,None,2026-04-23 02h55.39.585036 -0400,
0.0,0.01,47,5,3,2,0.7795733749808278,None,3,5,47,9,107.93973062501755,,107.93013237501145,107.93973062501755,107.93973062501755,108.43085029200302,108.43085029200302,108.52759899999364,108.52759899999364,109.0155280000181,109.0155280000181,109.02775695899618,109.81388299999526,2,0.7795733749808278,None,097127,001,2026-04-23_02h55.39.567,contrast-detection,,2025.2.4,None,2026-04-23 02h55.39.585036 -0400,
0.0,0.03,48,6,3,2,0.3450075000000652,None,3,6,48,10,109.82390320900595,,109.81436837499496,109.82390320900595,109.82390320900595,110.31415729201399,110.31415729201399,110.41101300000446,110.41101300000446,110.91204133399879,110.91204133399879,110.92810687501333,111.27980366701377,2,0.3450075000000652,None,097127,001,2026-04-23_02h55.39.567,contrast-detection,,2025.2.4,None,2026-04-23 02h55.39.585036 -0400,
0.0,0.6,49,7,3,2,0.27333162500872277,None,3,7,49,13,111.29000791700673,,111.28022941699601,111.29000791700673,111.29000791700673,111.78114925001864,111.78114925001864,111.87767433401314,111.87767433401314,112.3645136670093,112.3645136670093,112.37781200002064,112.66369716700865,2,0.27333162500872277,None,097127,001,2026-04-23_02h55.39.567,contrast-detection,,2025.2.4,None,2026-04-23 02h55.39.585036 -0400,
0.0,0.001,50,8,3,1,0.36111216599238105,None,3,8,50,8,112.67403191700578,,112.6642660840007,112.67403191700578,112.67403191700578,113.16449262501555,113.16449262501555,113.26074887500727,113.26074887500727,113.74842529199668,113.74842529199668,113.76115062501049,114.1298617090215,1,0.36111216599238105,None,097127,001,2026-04-23_02h55.39.567,contrast-detection,,2025.2.4,None,2026-04-23 02h55.39.585036 -0400,
0.3,0.0,51,9,3,1,0.27766191598493606,None,3,9,51,5,114.1399349590065,,114.130424959003,114.1399349590065,114.1399349590065,114.63138112501474,114.63138112501474,114.72754766701837,114.72754766701837,115.21403637502226,115.21403637502226,115.22752829201636,115.51377725001657,1,0.27766191598493606,None,097127,001,2026-04-23_02h55.39.567,contrast-detection,,2025.2.4,None,2026-04-23 02h55.39.585036 -0400,
0.0,0.0001,52,10,3,2,0.3689364170131739,None,3,10,52,7,115.5273882500187,,115.5141995419981,115.5273882500187,115.5273882500187,116.0146237089939,116.0146237089939,116.11110300000291,116.11110300000291,116.59764558399911,116.59764558399911,116.61105812501046,116.98288241701084,2,0.3689364170131739,None,097127,001,2026-04-23_02h55.39.567,contrast-detection,,2025.2.4,None,2026-04-23 02h55.39.585036 -0400,
0.0001,0.0,53,11,3,1,0.49951420800061896,None,3,11,53,0,116.99341858399566,,116.9832927499956,116.99341858399566,116.99341858399566,117.48118537501432,117.48118537501432,117.58285491701099,117.58285491701099,118.08147854200797,118.08147854200797,118.08147854200797,118.5843401250022,1,0.49951420800061896,None,097127,001,2026-04-23_02h55.39.567,contrast-detection,,2025.2.4,None,2026-04-23 02h55.39.585036 -0400,
0.1,0.0,54,12,3,1,0.5528144159761723,None,3,12,54,4,118.59395574999508,,118.58489604201168,118.59395574999508,118.59395574999508,119.08122329201433,119.08122329201433,119.1834474170173,119.1834474170173,119.68126320900046,119.68126320900046,119.68126320900046,120.24629208401893,1,0.5528144159761723,None,097127,001,2026-04-23_02h55.39.567,contrast-detection,,2025.2.4,None,2026-04-23 02h55.39.585036 -0400,
0.0,0.1,55,13,3,2,0.2966879580053501,None,3,13,55,11,120.25661670899717,,120.24681500002043,120.25661670899717,120.25661670899717,120.74759391701082,120.74759391701082,120.84364725000341,120.84364725000341,121.33083891699789,121.33083891699789,121.34425799999735,121.64637533400673,2,0.2966879580053501,None,097127,001,2026-04-23_02h55.39.567,contrast-detection,,2025.2.4,None,2026-04-23 02h55.39.585036 -0400,
0.0,0.3,56,0,4,2,0.28030566600500606,None,4,0,56,12,121.65657954200287,,121.6469312919944,121.65657954200287,121.65657954200287,122.14818449999439,122.14818449999439,122.24439350000466,122.24439350000466,122.7309543750016,122.7309543750016,122.74459025001852,123.03018324999721,2,0.28030566600500606,None,097127,001,2026-04-23_02h55.39.567,contrast-detection,,2025.2.4,None,2026-04-23 02h55.39.585036 -0400,
0.0,0.01,57,1,4,1,0.38903062499593943,None,4,1,57,9,123.04030258400599,,123.03064333400107,123.04030258400599,123.04030258400599,123.53084237501025,123.53084237501025,123.62772275001043,123.62772275001043,124.11543716699816,124.11543716699816,124.12783645899617,124.5304306250182,1,0.38903062499593943,None,097127,001,2026-04-23_02h55.39.567,contrast-detection,,2025.2.4,None,2026-04-23 02h55.39.585036 -0400,
0.0,0.0001,58,2,4,1,0.43175112499739043,None,4,2,58,7,124.54058141700807,,124.53095383400796,124.54058141700807,124.54058141700807,125.03127262499765,125.03127262499765,125.12801254200167,125.12801254200167,125.62840866702027,125.62840866702027,125.64503250000416,126.07951779200812,1,0.43175112499739043,None,097127,001,2026-04-23_02h55.39.567,contrast-detection,,2025.2.4,None,2026-04-23 02h55.39.585036 -0400,
0.6,0.0,59,3,4,1,0.41000495801563375,None,4,3,59,6,126.08978529201704,,126.07997945899842,126.08978529201704,126.08978529201704,126.5816087500134,126.5816087500134,126.67766362501425,126.67766362501425,127.16474491701229,127.16474491701229,127.17779329200857,127.59638741699746,1,0.41000495801563375,None,097127,001,2026-04-23_02h55.39.567,contrast-detection,,2025.2.4,None,2026-04-23 02h55.39.585036 -0400,
0.0,0.6,60,4,4,2,0.29340216700802557,None,4,4,60,13,127.60645562500576,,127.59699012502097,127.60645562500576,127.60645562500576,128.0982494589989,128.0982494589989,128.19425858400064,128.19425858400064,128.68106225001975,128.68106225001975,128.69447220899747,128.99674104200676,2,0.29340216700802557,None,097127,001,2026-04-23_02h55.39.567,contrast-detection,,2025.2.4,None,2026-04-23 02h55.39.585036 -0400,
0.01,0.0,61,5,4,1,0.8523489579965826,None,4,5,61,2,129.0070499170106,,128.9972850420163,129.0070499170106,129.0070499170106,129.49753058401984,129.49753058401984,129.59443475000444,129.59443475000444,130.0814300000202,130.0814300000202,130.09433804202126,130.95076500001596,1,0.8523489579965826,None,097127,001,2026-04-23_02h55.39.567,contrast-detection,,2025.2.4,None,2026-04-23 02h55.39.585036 -0400,
0.1,0.0,62,6,4,1,0.07507983298273757,None,4,6,62,4,130.97871020901948,,130.95131533400854,130.97871020901948,130.97871020901948,131.46472270900267,131.46472270900267,131.54932012502104,131.54932012502104,132.04871641701902,132.04871641701902,132.04871641701902,132.12999975000275,1,0.07507983298273757,None,097127,001,2026-04-23_02h55.39.567,contrast-detection,,2025.2.4,None,2026-04-23 02h55.39.585036 -0400,
0.0,0.001,63,7,4,1,0.3917677910067141,None,4,7,63,8,132.13981170899933,,132.1303234170191,132.13981170899933,132.13981170899933,132.63056508402224,132.63056508402224,132.7276812090131,132.7276812090131,133.2144998339936,133.2144998339936,133.2278410840081,133.62947975000134,1,0.3917677910067141,None,097127,001,2026-04-23_02h55.39.567,contrast-detection,,2025.2.4,None,2026-04-23 02h55.39.585036 -0400,
0.0001,0.0,64,8,4,1,0.6358422909979708,None,4,8,64,0,133.6398561670212,,133.6299949999957,133.6398561670212,133.6398561670212,134.1312231250049,134.1312231250049,134.2276804590074,134.2276804590074,134.7140915839991,134.7140915839991,134.7277121670195,135.36607725001522,1,0.6358422909979708,None,097127,001,2026-04-23_02h55.39.567,contrast-detection,,2025.2.4,None,2026-04-23 02h55.39.585036 -0400,
0.3,0.0,65,9,4,1,0.6163373749877792,None,4,9,65,5,135.3766757500125,,135.3665455839946,135.3766757500125,135.3766757500125,135.86488058400573,135.86488058400573,135.9657060840109,135.9657060840109,136.46117662501638,136.46117662501638,136.46117662501638,137.08108420899953,1,0.6163373749877792,None,097127,001,2026-04-23_02h55.39.567,contrast-detection,,2025.2.4,None,2026-04-23 02h55.39.585036 -0400,
0.0,0.03,66,10,4,2,0.7087931249989197,None,4,10,66,10,137.09118779201526,,137.08158500000718,137.09118779201526,137.09118779201526,137.58118062501308,137.58118062501308,137.6776809169969,137.6776809169969,138.16442654200364,138.16442654200364,138.17766291700536,138.89614170900313,2,0.7087931249989197,None,097127,001,2026-04-23_02h55.39.567,contrast-detection,,2025.2.4,None,2026-04-23 02h55.39.585036 -0400,
0.0,0.1,67,11,4,2,0.594989916018676,None,4,11,67,11,138.90480679200846,,138.89664200000698,138.90480679200846,138.90480679200846,139.39759162502014,139.39759162502014,139.49443462499767,139.49443462499767,139.98129737499403,139.98129737499403,139.99446058401372,140.59706875000848,2,0.594989916018676,None,097127,001,2026-04-23_02h55.39.567,contrast-detection,,2025.2.4,None,2026-04-23 02h55.39.585036 -0400,
0.001,0.0,68,12,4,2,0.6149648329883348,None,4,12,68,1,140.60760133402073,,140.5975867920206,140.60760133402073,140.60760133402073,141.09737712499918,141.09737712499918,141.19434879202163,141.19434879202163,141.68183570899419,141.68183570899419,141.69445400001132,142.3134337500087,2,0.6149648329883348,None,097127,001,2026-04-23_02h55.39.567,contrast-detection,,2025.2.4,None,2026-04-23 02h55.39.585036 -0400,
0.03,0.0,69,13,4,2,0.6523956249875482,None,4,13,69,3,142.32389033399522,,142.31404320901493,142.32389033399522,142.32389033399522,142.81432554201456,142.81432554201456,142.91125520900823,142.91125520900823,143.39779216700117,143.39779216700117,143.41094066700316,144.06579983400297,2,0.6523956249875482,None,097127,001,2026-04-23_02h55.39.567,contrast-detection,,2025.2.4,None,2026-04-23 02h55.39.585036 -0400,
0.03,0.0,70,0,5,1,0.5664202919870149,None,5,0,70,3,144.07674725001561,,144.066277083999,144.07674725001561,144.07674725001561,144.56415454202215,144.56415454202215,144.6670420000155,144.6670420000155,145.16389525000704,145.16389525000704,145.16389525000704,145.73244091699598,1,0.5664202919870149,None,097127,001,2026-04-23_02h55.39.567,contrast-detection,,2025.2.4,None,2026-04-23 02h55.39.585036 -0400,
0.6,0.0,71,1,5,1,0.24210208299336955,None,5,1,71,6,145.7442474999989,,145.73287158401217,145.7442474999989,145.7442474999989,146.23063891701167,146.23063891701167,146.32753254199633,146.32753254199633,146.81450195901562,146.81450195901562,146.8323282500205,147.08015566700487,1,0.24210208299336955,None,097127,001,2026-04-23_02h55.39.567,contrast-detection,,2025.2.4,None,2026-04-23 02h55.39.585036 -0400,
0.0,0.3,72,2,5,2,0.26276350000989623,None,5,2,72,12,147.0904284590215,,147.0807429169945,147.0904284590215,147.0904284590215,147.58180662500672,147.58180662500672,147.67757800000254,147.67757800000254,148.16442899999674,148.16442899999674,148.17757225001696,148.44604199999594,2,0.26276350000989623,None,097127,001,2026-04-23_02h55.39.567,contrast-detection,,2025.2.4,None,2026-04-23 02h55.39.585036 -0400,
0.1,0.0,73,3,5,1,0.3310524160042405,None,5,3,73,4,148.4544025840005,,148.44642383401515,148.4544025840005,148.4544025840005,148.94783499999903,148.94783499999903,149.04394612502074,149.04394612502074,149.53135587502038,149.53135587502038,149.54419133401825,149.87933712502127,1,0.3310524160042405,None,097127,001,2026-04-23_02h55.39.567,contrast-detection,,2025.2.4,None,2026-04-23 02h55.39.585036 -0400,
0.01,0.0,74,4,5,1,0.4736374999920372,None,5,4,74,2,149.88939129200298,,149.87971649999963,149.88939129200298,149.88939129200298,150.3809509999992,150.3809509999992,150.4776321670215,150.4776321670215,150.9646151670022,150.9646151670022,150.97760279200156,151.46331925000413,1,0.4736374999920372,None,097127,001,2026-04-23_02h55.39.567,contrast-detection,,2025.2.4,None,2026-04-23 02h55.39.585036 -0400,
0.0,0.1,75,5,5,2,0.5753577080031391,None,5,5,75,11,151.47403029201087,,151.46380445899558,151.47403029201087,151.47403029201087,151.96407666700543,151.96407666700543,152.06118904199684,152.06118904199684,152.5477925419982,152.5477925419982,152.56093279199558,153.14664695900865,2,0.5753577080031391,None,097127,001,2026-04-23_02h55.39.567,contrast-detection,,2025.2.4,None,2026-04-23 02h55.39.585036 -0400,
0.0,0.0001,76,6,5,2,0.9259949989791494,None,5,6,76,7,153.15709633400547,,153.1472028749995,153.15709633400547,153.15709633400547,153.64792362501612,153.64792362501612,153.74421879200963,153.74421879200963,154.2312570840004,154.2312570840004,154.24423629199737,155.1795133340056,2,0.9259949989791494,None,097127,001,2026-04-23_02h55.39.567,contrast-detection,,2025.2.4,None,2026-04-23 02h55.39.585036 -0400,
0.0,0.001,77,7,5,1,0.8764749580004718,None,5,7,77,8,155.1900983749947,,155.18008370901225,155.1900983749947,155.1900983749947,155.68122179200873,155.68122179200873,155.77767275000224,155.77767275000224,156.26420395899913,156.26420395899913,156.2776515840087,157.16336362500442,1,0.8764749580004718,None,097127,001,2026-04-23_02h55.39.567,contrast-detection,,2025.2.4,None,2026-04-23 02h55.39.585036 -0400,
0.3,0.0,78,8,5,1,0.39285174998803996,None,5,8,78,5,157.1736278340104,,157.1639652090089,157.1736278340104,157.1736278340104,157.66406816701056,157.66406816701056,157.76105066700256,157.76105066700256,158.2487095000106,158.2487095000106,158.26124804202118,158.6632349170104,1,0.39285174998803996,None,097127,001,2026-04-23_02h55.39.567,contrast-detection,,2025.2.4,None,2026-04-23 02h55.39.585036 -0400,
0.0001,0.0,79,9,5,1,0.7521555830026045,None,5,9,79,0,158.67393395901308,,158.6638305420056,158.67393395901308,158.67393395901308,159.1782777920016,159.1782777920016,159.26009095899644,159.26009095899644,159.74786416700226,159.74786416700226,159.76080449999426,160.52989083400462,1,0.7521555830026045,None,097127,001,2026-04-23_02h55.39.567,contrast-detection,,2025.2.4,None,2026-04-23 02h55.39.585036 -0400,
0.0,0.6,80,10,5,2,0.28829408300225623,None,5,10,80,13,160.5440159169957,,160.5303570840042,160.5440159169957,160.5440159169957,161.03168537499732,161.03168537499732,161.12749829201493,161.12749829201493,161.61454700000468,161.61454700000468,161.62761883399799,161.9296654589998,2,0.28829408300225623,None,097127,001,2026-04-23_02h55.39.567,contrast-detection,,2025.2.4,None,2026-04-23 02h55.39.585036 -0400,
0.0,0.01,81,11,5,2,0.7274761240114458,None,5,11,81,9,161.9397986670083,,161.9301979590091,161.9397986670083,161.9397986670083,162.4310652090062,162.4310652090062,162.527585333999,162.527585333999,163.01466162499855,163.01466162499855,163.02762320899637,163.76278487499803,2,0.7274761240114458,None,097127,001,2026-04-23_02h55.39.567,contrast-detection,,2025.2.4,None,2026-04-23 02h55.39.585036 -0400,
0.001,0.0,82,12,5,1,0.722525791003136,None,5,12,82,1,163.77326954199816,,163.76331291699898,163.77326954199816,163.77326954199816,164.26619837500039,164.26619837500039,164.36062095902162,164.36062095902162,164.84814633399947,164.84814633399947,164.86126337500173,165.59705670899712,1,0.722525791003136,None,097127,001,2026-04-23_02h55.39.567,contrast-detection,,2025.2.4,None,2026-04-23 02h55.39.585036 -0400,
0.0,0.03,83,13,5,2,0.26437233298202045,None,5,13,83,10,165.60772650002036,,165.59756291701342,165.60772650002036,165.60772650002036,166.0975304589956,166.0975304589956,166.1942884589953,166.1942884589953,166.68124016700312,166.68124016700312,166.69444366701646,166.9635887920158,2,0.26437233298202045,None,097127,001,2026-04-23_02h55.39.567,contrast-detection,,2025.2.4,None,2026-04-23 02h55.39.585036 -0400,
0.0,0.0001,84,0,6,1,0.43489358300575987,None,6,0,84,7,166.97355700001935,,166.96411845900002,166.97355700001935,166.97355700001935,167.46516208400135,167.46516208400135,167.56118808401516,167.56118808401516,168.0479100420198,168.0479100420198,168.0608573339996,168.49969795902143,1,0.43489358300575987,None,097127,001,2026-04-23_02h55.39.567,contrast-detection,,2025.2.4,None,2026-04-23 02h55.39.585036 -0400,
0.0,0.6,85,1,6,2,0.2621686659986153,None,6,1,85,13,168.50983179200557,,168.50010308402125,168.50983179200557,168.50983179200557,168.99747699999716,168.99747699999716,169.0942120840191,169.0942120840191,169.58075437499792,169.58075437499792,169.5976156250108,169.86424687501858,2,0.2621686659986153,None,097127,001,2026-04-23_02h55.39.567,contrast-detection,,2025.2.4,None,2026-04-23 02h55.39.585036 -0400,
0.0001,0.0,86,2,6,2,0.730634999985341,None,6,2,86,0,169.87418287500623,,169.86470079200808,169.87418287500623,169.87418287500623,170.36466933399788,170.36466933399788,170.46092979199602,170.46092979199602,170.94774195901118,170.94774195901118,170.96107570899767,171.69725483399816,2,0.730634999985341,None,097127,001,2026-04-23_02h55.39.567,contrast-detection,,2025.2.4,None,2026-04-23 02h55.39.585036 -0400,
0.03,0.0,87,3,6,1,0.37846425001043826,None,6,3,87,3,171.70761079201475,,171.69772541700513,171.70761079201475,171.70761079201475,172.1976871250081,172.1976871250081,172.2943472090119,172.2943472090119,172.78111100001843,172.78111100001843,172.7942857920134,173.17936362500768,1,0.37846425001043826,None,097127,001,2026-04-23_02h55.39.567,contrast-detection,,2025.2.4,None,2026-04-23 02h55.39.585036 -0400,
0.0,0.001,88,4,6,2,0.17215216599288397,None,6,4,88,8,173.18943950001267,,173.17984604201047,173.18943950001267,173.18943950001267,173.68110229200101,173.68110229200101,173.7775018340035,173.7775018340035,174.26554212500923,174.26554212500923,174.2774750420067,174.4625198340218,2,0.17215216599288397,None,097127,001,2026-04-23_02h55.39.567,contrast-detection,,2025.2.4,None,2026-04-23 02h55.39.585036 -0400,
0.6,0.0,89,5,6,1,0.5117203329864424,None,6,5,89,6,174.47263691699482,,174.46294054199825,174.47263691699482,174.47263691699482,174.9642248339951,174.9642248339951,175.06095287500648,175.06095287500648,175.54744300001767,175.54744300001767,175.56088975002058,176.08046150000882,1,0.5117203329864424,None,097127,001,2026-04-23_02h55.39.567,contrast-detection,,2025.2.4,None,2026-04-23 02h55.39.585036 -0400,
0.0,0.03,90,6,6,2,0.5301462910138071,None,6,6,90,10,176.09454166700016,,176.08092762500746,176.09454166700016,176.09454166700016,176.58073729200987,176.58073729200987,176.6777127920068,176.6777127920068,177.16792587499367,177.16792587499367,177.17742904199986,177.71344766701804,2,0.5301462910138071,None,097127,001,2026-04-23_02h55.39.567,contrast-detection,,2025.2.4,None,2026-04-23 02h55.39.585036 -0400,
0.0,0.01,91,7,6,1,0.732010291016195,None,6,7,91,9,177.72376987501048,,177.7139361250156,177.72376987501048,177.72376987501048,178.21442491700873,178.21442491700873,178.31208441700437,178.31208441700437,178.79775741702178,178.79775741702178,178.81149566700333,179.546782874997,1,0.732010291016195,None,097127,001,2026-04-23_02h55.39.567,contrast-detection,,2025.2.4,None,2026-04-23 02h55.39.585036 -0400,
0.0,0.3,92,8,6,2,0.36620595800923184,None,6,8,92,12,179.55711979200714,,179.54723295901204,179.55711979200714,179.55711979200714,180.04819800000405,180.04819800000405,180.1511717500107,180.1511717500107,180.64661537500797,180.64661537500797,180.64428500001668,181.01368720899336,2,0.36620595800923184,None,097127,001,2026-04-23_02h55.39.567,contrast-detection,,2025.2.4,None,2026-04-23 02h55.39.585036 -0400,
0.3,0.0,93,9,6,1,0.4936711659829598,None,6,9,93,5,181.02376095901127,,181.0141901250172,181.02376095901127,181.02376095901127,181.51365845900727,181.51365845900727,181.61087000000407,181.61087000000407,182.0980202500068,182.0980202500068,182.11086708400398,182.61335745902034,1,0.4936711659829598,None,097127,001,2026-04-23_02h55.39.567,contrast-detection,,2025.2.4,None,2026-04-23 02h55.39.585036 -0400,
0.01,0.0,94,10,6,1,0.7285880410054233,None,6,10,94,2,182.62344362499425,,182.6138225000177,182.62344362499425,182.62344362499425,183.11426558400854,183.11426558400854,183.2108729169995,183.2108729169995,183.69764512500842,183.69764512500842,183.71080245901248,184.44649233401287,1,0.7285880410054233,None,097127,001,2026-04-23_02h55.39.567,contrast-detection,,2025.2.4,None,2026-04-23 02h55.39.585036 -0400,
0.001,0.0,95,11,6,1,0.5102446250093635,None,6,11,95,1,184.45662850001827,,184.4469952090003,184.45662850001827,184.45662850001827,184.94738466700073,184.94738466700073,185.044206459017,185.044206459017,185.53156741699786,185.53156741699786,185.54421000002185,186.06324279200635,1,0.5102446250093635,None,097127,001,2026-04-23_02h55.39.567,contrast-detection,,2025.2.4,None,2026-04-23 02h55.39.585036 -0400,
0.0,0.1,96,12,6,2,0.3214801249851007,None,6,12,96,11,186.0738695000182,,186.0637796249939,186.0738695000182,186.0738695000182,186.5651131250197,186.5651131250197,186.66082587500568,186.66082587500568,187.14736354199704,187.14736354199704,187.1608094999974,187.49651837500278,2,0.3214801249851007,None,097127,001,2026-04-23_02h55.39.567,contrast-detection,,2025.2.4,None,2026-04-23 02h55.39.585036 -0400,
0.1,0.0,97,13,6,1,0.47006279102060944,None,6,13,97,4,187.5066020420054,,187.49696816701908,187.5066020420054,187.5066020420054,187.99733745900448,187.99733745900448,188.09421574999578,188.09421574999578,188.58104200000525,188.58104200000525,188.59418012501555,189.06660591700347,1,0.47006279102060944,None,097127,001,2026-04-23_02h55.39.567,contrast-detection,,2025.2.4,None,2026-04-23 02h55.39.585036 -0400,
0.6,0.0,98,0,7,1,0.6533411659765989,None,7,0,98,6,189.0767007500108,,189.0670548750204,189.0767007500108,189.0767007500108,189.56454337501782,189.56454337501782,189.66720541700488,189.66720541700488,190.16496550000738,190.16496550000738,190.16085991699947,190.8173061250127,1,0.6533411659765989,None,097127,001,2026-04-23_02h55.39.567,contrast-detection,,2025.2.4,None,2026-04-23 02h55.39.585036 -0400,
0.0,0.03,99,1,7,2,0.4348590830049943,None,7,1,99,10,190.82968258400797,,190.8178906670073,190.82968258400797,190.82968258400797,191.32756133400835,191.32756133400835,191.41596533401753,191.41596533401753,191.91446254201583,191.91446254201583,191.91446254201583,192.3630103750038,2,0.4348590830049943,None,097127,001,2026-04-23_02h55.39.567,contrast-detection,,2025.2.4,None,2026-04-23 02h55.39.585036 -0400,
0.0,0.0001,100,2,7,2,1.1462695410009474,None,7,2,100,7,192.3733199170092,,192.36358295902028,192.3733199170092,192.3733199170092,192.86387000000104,192.86387000000104,192.960913042014,192.960913042014,193.4478997499973,193.4478997499973,193.46086337501765,194.61326729200664,2,1.1462695410009474,None,097127,001,2026-04-23_02h55.39.567,contrast-detection,,2025.2.4,None,2026-04-23 02h55.39.585036 -0400,
0.0,0.1,101,3,7,2,0.2919233739958145,None,7,3,101,11,194.62364249999519,,194.61377983400598,194.62364249999519,194.62364249999519,195.11481720901793,195.11481720901793,195.21078049999778,195.21078049999778,195.69863820899627,195.69863820899627,195.7113041249977,196.01325412502047,2,0.2919233739958145,None,097127,001,2026-04-23_02h55.39.567,contrast-detection,,2025.2.4,None,2026-04-23 02h55.39.585036 -0400,
0.0,0.001,102,4,7,2,0.4132020410033874,None,7,4,102,8,196.0235404590203,,196.01388483401388,196.0235404590203,196.0235404590203,196.51405937501113,196.51405937501113,196.6109024590114,196.6109024590114,197.09775216699927,197.09775216699927,197.1108894170029,197.53123608400347,2,0.4132020410033874,None,097127,001,2026-04-23_02h55.39.567,contrast-detection,,2025.2.4,None,2026-04-23 02h55.39.585036 -0400,
0.0,0.6,103,5,7,2,0.36050708300899714,None,7,5,103,13,197.54158033401472,,197.5319539589982,197.54158033401472,197.54158033401472,198.03167408402078,198.03167408402078,198.1278235000209,198.1278235000209,198.61457354199956,198.61457354199956,198.62751812499482,198.9960332920018,2,0.36050708300899714,None,097127,001,2026-04-23_02h55.39.567,contrast-detection,,2025.2.4,None,2026-04-23 02h55.39.585036 -0400,
0.03,0.0,104,6,7,2,1.463922041002661,None,7,6,104,3,199.00635666699964,,198.996599917009,199.00635666699964,199.00635666699964,199.49771266701282,199.49771266701282,199.59440012500272,199.59440012500272,200.0821877499984,200.0821877499984,200.0941313340154,201.56464437500108,2,1.463922041002661,None,097127,001,2026-04-23_02h55.39.567,contrast-detection,,2025.2.4,None,2026-04-23 02h55.39.585036 -0400,
0.1,0.0,105,7,7,1,0.15104154098662548,None,7,7,105,4,201.57530258400948,,201.56511799999862,201.57530258400948,201.57530258400948,202.0640715000045,202.0640715000045,202.16079587501008,202.16079587501008,202.64782675000606,202.64782675000606,202.66079845899367,202.81650775001617,1,0.15104154098662548,None,097127,001,2026-04-23_02h55.39.567,contrast-detection,,2025.2.4,None,2026-04-23 02h55.39.585036 -0400,
0.01,0.0,106,8,7,2,0.5392567079979926,None,7,8,106,2,202.82641966702067,,202.81691525000497,202.82641966702067,202.82641966702067,203.31496220899862,203.31496220899862,203.41678916700766,203.41678916700766,203.91464633401483,203.91464633401483,203.91464633401483,204.46341241701157,2,0.5392567079979926,None,097127,001,2026-04-23_02h55.39.567,contrast-detection,,2025.2.4,None,2026-04-23 02h55.39.585036 -0400,
0.0,0.01,107,9,7,1,0.8179490409966093,None,7,9,107,9,204.4738415000029,,204.46392249999917,204.4738415000029,204.4738415000029,204.9642918750178,204.9642918750178,205.06097487499937,205.06097487499937,205.5482104170078,205.5482104170078,205.56089787499513,206.38463300000876,1,0.8179490409966093,None,097127,001,2026-04-23_02h55.39.567,contrast-detection,,2025.2.4,None,2026-04-23 02h55.39.585036 -0400,
0.001,0.0,108,10,7,2,0.6242501670203637,None,7,10,108,1,206.41105600001174,,206.3850502090063,206.41105600001174,206.41105600001174,206.89756929202122,206.89756929202122,206.98291350001819,206.98291350001819,207.47823558401433,207.47823558401433,207.49450587501633,208.13065608401666,2,0.6242501670203637,None,097127,001,2026-04-23_02h55.39.567,contrast-detection,,2025.2.4,None,2026-04-23 02h55.39.585036 -0400,
0.0001,0.0,109,11,7,2,0.2813776250113733,None,7,11,109,0,208.14064366702223,,208.13111995899817,208.14064366702223,208.14064366702223,208.63050320901675,208.63050320901675,208.72781895901426,208.72781895901426,209.21459358400898,209.21459358400898,209.22755629199673,209.51450729201315,2,0.2813776250113733,None,097127,001,2026-04-23_02h55.39.567,contrast-detection,,2025.2.4,None,2026-04-23 02h55.39.585036 -0400,
0.0,0.3,110,12,7,2,0.20587120798882097,None,7,12,110,12,209.5246462089999,,209.51504537501023,209.5246462089999,209.5246462089999,210.0141455840203,210.0141455840203,210.1108884169953,210.1108884169953,210.5975222090201,210.5975222090201,210.61082137501216,210.83013366701198,2,0.20587120798882097,None,097127,001,2026-04-23_02h55.39.567,contrast-detection,,2025.2.4,None,2026-04-23 02h55.39.585036 -0400,
0.3,0.0,111,13,7,1,0.18028449898702092,None,7,13,111,5,210.84035504201893,,210.8307480000076,210.84035504201893,210.84035504201893,211.3305700000201,211.3305700000201,211.42756837501656,211.42756837501656,211.9142769589962,211.9142769589962,211.9274792500073,212.11437587501132,1,0.18028449898702092,None,097127,001,2026-04-23_02h55.39.567,contrast-detection,,2025.2.4,None,2026-04-23 02h55.39.585036 -0400,
0.0,0.3,112,0,8,2,0.004815541993593797,None,8,0,112,12,212.12424379200093,,212.11481104200357,212.12424379200093,212.12424379200093,212.6142993340036,212.6142993340036,212.7106888749986,212.7106888749986,213.19817166699795,213.19817166699795,213.21085487501114,213.2298495840223,2,0.004815541993593797,None,097127,001,2026-04-23_02h55.39.567,contrast-detection,,2025.2.4,None,2026-04-23 02h55.39.585036 -0400,
0.6,0.0,113,1,8,1,0.013289374997839332,None,8,1,113,6,213.2401567090128,,213.23042037501,213.2401567090128,213.2401567090128,213.73041145899333,213.73041145899333,213.82752183399862,213.82752183399862,214.31486429201323,214.31486429201323,214.32746795899584,214.3473662500037,1,0.013289374997839332,None,097127,001,2026-04-23_02h55.39.567,contrast-detection,,2025.2.4,None,2026-04-23 02h55.39.585036 -0400,
0.3,0.0,114,2,8,1,0.2639332080143504,None,8,2,114,5,214.3574107089953,,214.3478306250181,214.3574107089953,214.3574107089953,214.84815283401986,214.84815283401986,214.94415554200532,214.94415554200532,215.43093370899442,215.43093370899442,215.44465120902169,215.71340812501148,1,0.2639332080143504,None,097127,001,2026-04-23_02h55.39.567,contrast-detection,,2025.2.4,None,2026-04-23 02h55.39.585036 -0400,
0.1,0.0,115,3,8,1,0.43094237498007715,None,8,3,115,4,215.72349304199452,,215.71389345900388,215.72349304199452,215.72349304199452,216.21533504201216,216.21533504201216,216.3108512920153,216.3108512920153,216.7977052500064,216.7977052500064,216.81079804201727,217.24738445901312,1,0.43094237498007715,None,097127,001,2026-04-23_02h55.39.567,contrast-detection,,2025.2.4,None,2026-04-23 02h55.39.585036 -0400,
0.01,0.0,116,4,8,1,0.275345208006911,None,8,4,116,2,217.2574270000041,,217.24785104201874,217.2574270000041,217.2574270000041,217.74745829199674,217.74745829199674,217.84433541700128,217.84433541700128,218.3312130419945,218.3312130419945,218.34434570901794,218.6298051670019,1,0.275345208006911,None,097127,001,2026-04-23_02h55.39.567,contrast-detection,,2025.2.4,None,2026-04-23 02h55.39.585036 -0400,
0.0,0.01,117,5,8,1,0.7235014580073766,None,8,5,117,9,218.6400607090036,,218.63039662499796,218.6400607090036,218.6400607090036,219.13164837501245,219.13164837501245,219.22767741701682,219.22767741701682,219.7140313750133,219.7140313750133,219.72790275001898,220.46324087501853,1,0.7235014580073766,None,097127,001,2026-04-23_02h55.39.567,contrast-detection,,2025.2.4,None,2026-04-23 02h55.39.585036 -0400,
0.0,0.0001,118,6,8,1,1.2434187080070842,None,8,6,118,7,220.47368683401146,,220.4637276249996,220.47368683401146,220.47368683401146,220.97797804200673,220.97797804200673,221.0776838750171,221.0776838750171,221.56489249999868,221.56489249999868,221.56100808401243,222.81362491700565,1,1.2434187080070842,None,097127,001,2026-04-23_02h55.39.567,contrast-detection,,2025.2.4,None,2026-04-23 02h55.39.585036 -0400,
0.0,0.1,119,7,8,2,0.39933491600095294,None,8,7,119,11,222.82466500002192,,222.81407666701125,222.82466500002192,222.82466500002192,223.313905292016,223.313905292016,223.41101758400328,223.41101758400328,223.89757195900893,223.89757195900893,223.91102108400082,224.31324583399692,2,0.39933491600095294,None,097127,001,2026-04-23_02h55.39.567,contrast-detection,,2025.2.4,None,2026-04-23 02h55.39.585036 -0400,
0.03,0.0,120,8,8,1,0.6204613749869168,None,8,8,120,3,224.32345941700623,,224.3137240000069,224.32345941700623,224.32345941700623,224.81466412500595,224.81466412500595,224.91083779200562,224.91083779200562,225.3983729169995,225.3983729169995,225.4108160000178,226.04617691700696,1,0.6204613749869168,None,097127,001,2026-04-23_02h55.39.567,contrast-detection,,2025.2.4,None,2026-04-23 02h55.39.585036 -0400,
0.0001,0.0,121,9,8,1,0.7071842080040369,None,8,9,121,0,226.0570046250068,,226.04676512500737,226.0570046250068,226.0570046250068,226.54773791701882,226.54773791701882,226.64415916701546,226.64415916701546,227.13034466700628,227.13034466700628,227.14410166701418,227.8633170420071,1,0.7071842080040369,None,097127,001,2026-04-23_02h55.39.567,contrast-detection,,2025.2.4,None,2026-04-23 02h55.39.585036 -0400,
0.0,0.001,122,10,8,1,0.4710679579875432,None,8,10,122,8,227.8739854170126,,227.86381174999406,227.8739854170126,227.8739854170126,228.36771529199905,228.36771529199905,228.4611652920139,228.4611652920139,228.9483504590171,228.9483504590171,228.9611261250102,229.44665408402216,1,0.4710679579875432,None,097127,001,2026-04-23_02h55.39.567,contrast-detection,,2025.2.4,None,2026-04-23 02h55.39.585036 -0400,
0.001,0.0,123,11,8,2,0.3657432079780847,None,8,11,123,1,229.45768666701042,,229.44716662500286,229.45768666701042,229.45768666701042,229.94749662501272,229.94749662501272,230.0441182090144,230.0441182090144,230.53191862499807,230.53191862499807,230.5444538750162,230.91561420902144,2,0.3657432079780847,None,097127,001,2026-04-23_02h55.39.567,contrast-detection,,2025.2.4,None,2026-04-23 02h55.39.585036 -0400,
0.0,0.6,124,12,8,2,0.36535345800803043,None,8,12,124,13,230.92688333400292,,230.91592666701763,230.92688333400292,230.92688333400292,231.41467925001052,231.41467925001052,231.51604545902228,231.51604545902228,232.0108190420142,232.0108190420142,232.0108190420142,232.38062487501884,2,0.36535345800803043,None,097127,001,2026-04-23_02h55.39.567,contrast-detection,,2025.2.4,None,2026-04-23 02h55.39.585036 -0400,
0.0,0.03,125,13,8,1,0.7517054159834515,None,8,13,125,10,232.39139058400178,,232.38105562501005,232.39139058400178,232.39139058400178,232.88102254201658,232.88102254201658,232.97748058399884,232.97748058399884,233.4646760839969,233.4646760839969,233.47742566702073,234.23299375001807,1,0.7517054159834515,None,097127,001,2026-04-23_02h55.39.567,contrast-detection,,2025.2.4,None,2026-04-23 02h55.39.585036 -0400,
0.0,0.0001,126,0,9,2,0.5236959999892861,None,9,0,126,7,234.24333325002226,,234.23343054199358,234.24333325002226,234.24333325002226,234.73098545899848,234.73098545899848,234.83267362500192,234.83267362500192,235.32740433400613,235.32740433400613,235.32740433400613,235.86396233399864,2,0.5236959999892861,None,097127,001,2026-04-23_02h55.39.567,contrast-detection,,2025.2.4,None,2026-04-23 02h55.39.585036 -0400,
0.0,0.1,127,1,9,2,0.33309962501516566,None,9,1,127,11,235.8744838340208,,235.86444920900976,235.8744838340208,235.8744838340208,236.36442579200957,236.36442579200957,236.46088008402148,236.46088008402148,236.9473025840125,236.9473025840125,236.96091816699482,237.2962831670011,2,0.33309962501516566,None,097127,001,2026-04-23_02h55.39.567,contrast-detection,,2025.2.4,None,2026-04-23 02h55.39.585036 -0400,
0.6,0.0,128,2,9,1,2.085144582990324,None,9,2,128,6,237.30665104201762,,237.29677616700064,237.30665104201762,237.30665104201762,237.79775737499585,237.79775737499585,237.89474291700753,237.89474291700753,238.3791205000016,238.3791205000016,238.39378500002204,240.49676766700577,1,2.085144582990324,None,097127,001,2026-04-23_02h55.39.567,contrast-detection,,2025.2.4,None,2026-04-23 02h55.39.585036 -0400,
0.3,0.0,129,3,9,1,0.8307095410127658,None,9,3,129,5,240.5094772920129,,240.49728075001622,240.5094772920129,240.5094772920129,240.9976763339946,240.9976763339946,241.0931707090058,241.0931707090058,241.58099745900836,241.58099745900836,241.59429929201724,242.43170025001746,1,0.8307095410127658,None,097127,001,2026-04-23_02h55.39.567,contrast-detection,,2025.2.4,None,2026-04-23 02h55.39.585036 -0400,
0.1,0.0,130,4,9,1,0.5945537490188144,None,9,4,130,4,242.4440517500043,,242.43215441700886,242.4440517500043,242.4440517500043,242.93072479200782,242.93072479200782,243.033096500003,243.033096500003,243.53116945902002,243.53116945902002,243.52746604199638,244.12943279201863,1,0.5945537490188144,None,097127,001,2026-04-23_02h55.39.567,contrast-detection,,2025.2.4,None,2026-04-23 02h55.39.585036 -0400,
0.001,0.0,131,5,9,1,0.5934985000058077,None,9,5,131,1,244.14020891700056,,244.1300593750202,244.14020891700056,244.14020891700056,244.6320342500112,244.6320342500112,244.72732950001955,244.72732950001955,245.21452695899643,245.21452695899643,245.22751016699476,245.83001529201283,1,0.5934985000058077,None,097127,001,2026-04-23_02h55.39.567,contrast-detection,,2025.2.4,None,2026-04-23 02h55.39.585036 -0400,
0.01,0.0,132,6,9,1,0.4915783329925034,None,9,6,132,2,245.8402031250007,,245.83050775001175,245.8402031250007,245.8402031250007,246.3306713750062,246.3306713750062,246.42737687501358,246.42737687501358,246.91422608401626,246.91422608401626,246.92734654201195,247.43048258399358,1,0.4915783329925034,None,097127,001,2026-04-23_02h55.39.567,contrast-detection,,2025.2.4,None,2026-04-23 02h55.39.585036 -0400,
0.0,0.03,133,7,9,2,0.3795285829983186,None,9,7,133,10,247.44083454200882,,247.43092508401605,247.44083454200882,247.44083454200882,247.93081250000978,247.93081250000978,248.02777800001786,248.02777800001786,248.52768749999814,248.52768749999814,248.54427050001686,248.92950395902153,2,0.3795285829983186,None,097127,001,2026-04-23_02h55.39.567,contrast-detection,,2025.2.4,None,2026-04-23 02h55.39.585036 -0400,
0.0,0.3,134,8,9,2,0.3980197920172941,None,9,8,134,12,248.939752959006,,248.92999529201188,248.939752959006,248.939752959006,249.43023408402223,249.43023408402223,249.52739787500468,249.52739787500468,250.01386212499347,250.01386212499347,250.0277217090188,250.4292688340065,2,0.3980197920172941,None,097127,001,2026-04-23_02h55.39.567,contrast-detection,,2025.2.4,None,2026-04-23 02h55.39.585036 -0400,
0.0,0.01,135,9,9,1,0.446829708002042,None,9,9,135,9,250.43959987501148,,250.42970645902096,250.43959987501148,250.43959987501148,250.93117870899732,250.93117870899732,251.02808275001007,251.02808275001007,251.51458962500328,251.51458962500328,251.5278912089998,251.9808865840023,1,0.446829708002042,None,097127,001,2026-04-23_02h55.39.567,contrast-detection,,2025.2.4,None,2026-04-23 02h55.39.585036 -0400,
0.0,0.001,136,10,9,1,0.3211585830140393,None,9,10,136,8,251.99104399999487,,251.98136458400404,251.99104399999487,251.99104399999487,252.48198254199815,252.48198254199815,252.57776954199653,252.57776954199653,253.06437391700456,253.06437391700456,253.07749483399675,253.41326345902053,1,0.3211585830140393,None,097127,001,2026-04-23_02h55.39.567,contrast-detection,,2025.2.4,None,2026-04-23 02h55.39.585036 -0400,
0.03,0.0,137,11,9,1,0.37708004101295955,None,9,11,137,3,253.42348058399512,,253.41379770901403,253.42348058399512,253.42348058399512,253.91437508401577,253.91437508401577,254.01107720899745,254.01107720899745,254.49707937499625,254.49707937499625,254.5105958750064,254.89752729202155,1,0.37708004101295955,None,097127,001,2026-04-23_02h55.39.567,contrast-detection,,2025.2.4,None,2026-04-23 02h55.39.585036 -0400,
0.0,0.6,138,12,9,2,0.3584808330051601,None,9,12,138,13,254.90742016700096,,254.89802320901072,254.90742016700096,254.90742016700096,255.3978599999973,255.3978599999973,255.4940564169956,255.4940564169956,255.9810421669972,255.9810421669972,255.9940731250099,256.3625237499946,2,0.3584808330051601,None,097127,001,2026-04-23_02h55.39.567,contrast-detection,,2025.2.4,None,2026-04-23 02h55.39.585036 -0400,
0.0001,0.0,139,13,9,1,0.8668512500007637,None,9,13,139,0,256.3726357090054,,256.3630753339967,256.3726357090054,256.3726357090054,256.8644426249957,256.8644426249957,256.96067012500134,256.96067012500134,257.4474910419958,257.4474910419958,257.4606552089972,258.33867883399944,1,0.8668512500007637,None,097127,001,2026-04-23_02h55.39.567,contrast-detection,,2025.2.4,None,2026-04-23 02h55.39.585036 -0400,
