contrast,location,size,thisN,thisTrialN,thisRepN,response.keys,response.rt,response.duration,trials.thisRepN,trials.thisTrialN,trials.thisN,trials.thisIndex,thisRow.t,notes,begin_experiment.started,begin_experiment.stopped,trial.started,response.started,trial.stopped,trials.response.keys,trials.response.rt,trials.response.duration,participant,session,date,expName,psychopyVersion,frameRate,expStart
,,,,,,,,,,,,,,,0.007201666,2.0747648329706863,,,,,,,demo,001,2025-01-28_22h20.20.760,forced_choice,2024.2.4,None,2025-01-28 22h20.25.442427 -0500
0.001,1,0.1,1,1,0,left,0.5554150410462171,None,0,1,1,2,3.1273409159621224,,,,3.1209457078948617,3.716469082981348,4.28543575,left,0.5554150410462171,None,demo,001,2025-01-28_22h20.20.760,forced_choice,2024.2.4,None,2025-01-28 22h20.25.442427 -0500
0.1,-1,0.1,2,2,0,left,0.35477958293631673,None,0,2,2,14,4.302326499950141,,,,4.287252124981023,4.8830181249650195,5.253054040949792,left,0.35477958293631673,None,demo,001,2025-01-28_22h20.20.760,forced_choice,2024.2.4,None,2025-01-28 22h20.25.442427 -0500
0.0001,1,0.1,3,3,0,right,0.32320662401616573,None,0,3,3,1,5.266347874887288,,,,5.2552363749127835,5.849648332921788,6.185664915945381,right,0.32320662401616573,None,demo,001,2025-01-28_22h20.20.760,forced_choice,2024.2.4,None,2025-01-28 22h20.25.442427 -0500
0.1,1,0.1,4,4,0,right,0.2987929580267519,None,0,4,4,4,6.193479582900181,,,,6.187692499952391,6.783043957897462,7.085511665907688,right,0.2987929580267519,None,demo,001,2025-01-28_22h20.20.760,forced_choice,2024.2.4,None,2025-01-28 22h20.25.442427 -0500
0.001,-1,0.1,5,5,0,left,1.4007065830519423,None,0,5,5,10,7.092316665919498,,,,7.087535374914296,7.683031665976159,9.089466207893565,left,1.4007065830519423,None,demo,001,2025-01-28_22h20.20.760,forced_choice,2024.2.4,None,2025-01-28 22h20.25.442427 -0500
0.1,1,0.1,7,7,0,right,0.2847464989172295,None,0,7,7,6,9.966814332990907,,,,9.957341290893964,10.553997915936634,10.85260020790156,right,0.2847464989172295,None,demo,001,2025-01-28_22h20.20.760,forced_choice,2024.2.4,None,2025-01-28 22h20.25.442427 -0500
0.01,-1,0.1,8,8,0,left,0.2439690000610426,None,0,8,8,11,10.86012987489812,,,,10.854781207977794,11.449756207992323,11.701730374945328,left,0.2439690000610426,None,demo,001,2025-01-28_22h20.20.760,forced_choice,2024.2.4,None,2025-01-28 22h20.25.442427 -0500
1,1,0.1,9,9,0,right,0.25499683304224163,None,0,9,9,7,11.708488415926695,,,,11.70370804099366,12.299683790886775,12.557860582950525,right,0.25499683304224163,None,demo,001,2025-01-28_22h20.20.760,forced_choice,2024.2.4,None,2025-01-28 22h20.25.442427 -0500
1e-05,1,0.1,10,10,0,left,0.4075313750654459,None,0,10,10,0,12.565273082931526,,,,12.559824790921994,13.153998707886785,13.568777999957092,left,0.4075313750654459,None,demo,001,2025-01-28_22h20.20.760,forced_choice,2024.2.4,None,2025-01-28 22h20.25.442427 -0500
0.1,-1,0.1,11,11,0,left,0.36612712393980473,None,0,11,11,12,13.576944207889028,,,,13.570842749904841,14.166545124957338,14.535243040998466,left,0.36612712393980473,None,demo,001,2025-01-28_22h20.20.760,forced_choice,2024.2.4,None,2025-01-28 22h20.25.442427 -0500
1,-1,0.1,12,12,0,left,0.2455928330309689,None,0,12,12,15,14.549734499887563,,,,14.537259457982145,15.133003124967217,15.385079332976602,left,0.2455928330309689,None,demo,001,2025-01-28_22h20.20.760,forced_choice,2024.2.4,None,2025-01-28 22h20.25.442427 -0500
0.0001,-1,0.1,13,13,0,left,0.32775787403807044,None,0,13,13,9,15.392152665997855,,,,15.386977790971287,15.983129082946107,16.318121999967843,left,0.32775787403807044,None,demo,001,2025-01-28_22h20.20.760,forced_choice,2024.2.4,None,2025-01-28 22h20.25.442427 -0500
0.01,1,0.1,14,14,0,right,1.1253387079341337,None,0,14,14,3,16.326706082909368,,,,16.31992424989585,16.916366749908775,18.051806124974973,right,1.1253387079341337,None,demo,001,2025-01-28_22h20.20.760,forced_choice,2024.2.4,None,2025-01-28 22h20.25.442427 -0500
1e-05,-1,0.1,15,15,0,left,0.5206528330454603,None,0,15,15,8,18.06022162,,,,18.054082249989733,18.649839957943186,19.185709832934663,left,0.5206528330454603,None,demo,001,2025-01-28_22h20.20.760,forced_choice,2024.2.4,None,2025-01-28 22h20.25.442427 -0500
1,1,0.1,16,0,1,right,0.26952995697502047,None,1,0,16,7,19.192592457984574,,,,19.18792054092046,19.78306908288505,20.055606499896385,right,0.26952995697502047,None,demo,001,2025-01-28_22h20.20.760,forced_choice,2024.2.4,None,2025-01-28 22h20.25.442427 -0500
0.001,1,0.1,17,1,1,left,0.2175530819222331,None,1,1,17,2,20.066851374926046,,,,20.05720737494994,20.65398499998264,20.88554058293812,left,0.2175530819222331,None,demo,001,2025-01-28_22h20.20.760,forced_choice,2024.2.4,None,2025-01-28 22h20.25.442427 -0500
0.0001,1,0.1,18,2,1,left,0.322111958,None,1,2,18,1,20.900231457897462,,,,20.88775433297269,21.48335579095874,21.81829033291433,left,0.322111958,None,demo,001,2025-01-28_22h20.20.760,forced_choice,2024.2.4,None,2025-01-28 22h20.25.442427 -0500
1e-05,1,0.1,19,3,1,left,0.9119027910055593,None,1,3,19,0,21.82632970798295,,,,21.820492624887265,22.41651791590266,23.335211457917467,left,0.9119027910055593,None,demo,001,2025-01-28_22h20.20.760,forced_choice,2024.2.4,None,2025-01-28 22h20.25.442427 -0500
0.001,-1,0.1,20,4,1,left,0.7043057489208877,None,1,4,20,10,23.349719457910396,,,,23.33742996,23.933031540946104,24.652368165901862,left,0.7043057489208877,None,demo,001,2025-01-28_22h20.20.760,forced_choice,2024.2.4,None,2025-01-28 22h20.25.442427 -0500
0.1,-1,0.1,21,5,1,left,0.40752104111015797,None,1,5,21,14,24.659628749941476,,,,24.654475374962203,25.24983829096891,25.668604790931568,left,0.40752104111015797,None,demo,001,2025-01-28_22h20.20.760,forced_choice,2024.2.4,None,2025-01-28 22h20.25.442427 -0500
0.0001,-1,0.1,22,6,1,left,0.31229720707051456,None,1,6,22,9,25.676781540969387,,,,25.670640582917258,26.266613165964372,26.584746665903367,left,0.31229720707051456,None,demo,001,2025-01-28_22h20.20.760,forced_choice,2024.2.4,None,2025-01-28 22h20.25.442427 -0500
1,-1,0.1,23,7,1,left,0.25669820804614574,None,1,7,23,15,26.59266141592525,,,,26.58674383291509,27.18318949989043,27.440814874949865,left,0.25669820804614574,None,demo,001,2025-01-28_22h20.20.760,forced_choice,2024.2.4,None,2025-01-28 22h20.25.442427 -0500
0.1,-1,0.1,24,8,1,left,0.27306604105979204,None,1,8,24,12,27.449404082959518,,,,27.441756290965714,28.03787795791868,28.31804141588509,left,0.27306604105979204,None,demo,001,2025-01-28_22h20.20.760,forced_choice,2024.2.4,None,2025-01-28 22h20.25.442427 -0500
1e-05,-1,0.1,26,10,1,left,0.9334847909631208,None,1,10,26,8,29.25916358293034,,,,29.254354332922958,29.84875899995677,30.785366124939173,left,0.9334847909631208,None,demo,001,2025-01-28_22h20.20.760,forced_choice,2024.2.4,None,2025-01-28 22h20.25.442427 -0500
0.01,1,0.1,28,12,1,right,0.32556008303072304,None,1,12,28,3,31.76610337488819,,,,31.759894999908283,32.35381516593043,32.685706957941875,right,0.32556008303072304,None,demo,001,2025-01-28_22h20.20.760,forced_choice,2024.2.4,None,2025-01-28 22h20.25.442427 -0500
0.1,1,0.1,29,13,1,right,0.3389163740212098,None,1,13,29,4,32.694539540912956,,,,32.68806587497238,33.28328175,33.63579387497157,right,0.3389163740212098,None,demo,001,2025-01-28_22h20.20.760,forced_choice,2024.2.4,None,2025-01-28 22h20.25.442427 -0500
0.01,-1,0.1,30,14,1,left,0.671078916,None,1,14,30,11,33.64345166599378,,,,33.63781054096762,34.23309191595763,34.90655762492679,left,0.671078916,None,demo,001,2025-01-28_22h20.20.760,forced_choice,2024.2.4,None,2025-01-28 22h20.25.442427 -0500
0.1,1,0.1,31,15,1,right,0.26839820796158165,None,1,15,31,6,34.91726217,,,,34.90840108296834,35.50476774992421,35.785373457940295,right,0.26839820796158165,None,demo,001,2025-01-28_22h20.20.760,forced_choice,2024.2.4,None,2025-01-28 22h20.25.442427 -0500
0.01,-1,0.1,32,0,2,left,1.1560699989786372,None,2,0,32,11,35.79228562489152,,,,35.787400124943815,36.383034124970436,37.55160945793614,left,1.1560699989786372,None,demo,001,2025-01-28_22h20.20.760,forced_choice,2024.2.4,None,2025-01-28 22h20.25.442427 -0500
0.1,-1,0.1,33,1,2,left,0.4703175410395488,None,2,1,33,12,37.56037916592322,,,,37.553611290990375,38.14976024988573,38.622343832976185,left,0.4703175410395488,None,demo,001,2025-01-28_22h20.20.760,forced_choice,2024.2.4,None,2025-01-28 22h20.25.442427 -0500
1e-05,-1,0.1,34,2,2,left,0.4223307080101222,None,2,2,34,8,38.63263395789545,,,,38.62450116593391,39.22101508290507,39.652271332917735,left,0.4223307080101222,None,demo,001,2025-01-28_22h20.20.760,forced_choice,2024.2.4,None,2025-01-28 22h20.25.442427 -0500
0.0001,-1,0.1,35,3,2,right,0.44144099892582744,None,2,3,35,9,39.66085916594602,,,,39.654247624916025,40.249675207887776,40.702431957935914,right,0.44144099892582744,None,demo,001,2025-01-28_22h20.20.760,forced_choice,2024.2.4,None,2025-01-28 22h20.25.442427 -0500
0.01,1,0.1,36,4,2,left,0.5132636660709977,None,2,4,36,3,40.716279207961634,,,,40.704613249981776,41.299803374917246,41.81900745793246,left,0.5132636660709977,None,demo,001,2025-01-28_22h20.20.760,forced_choice,2024.2.4,None,2025-01-28 22h20.25.442427 -0500
1e-05,1,0.1,37,5,2,left,0.4385780820157379,None,2,5,37,0,41.82727383298334,,,,41.82101666589733,42.41660516592674,42.86825029097963,left,0.4385780820157379,None,demo,001,2025-01-28_22h20.20.760,forced_choice,2024.2.4,None,2025-01-28 22h20.25.442427 -0500
1,1,0.1,38,6,2,right,0.9584705829620361,None,2,6,38,7,42.87696520797908,,,,42.870486624888144,43.46656670793891,44.43466904,right,0.9584705829620361,None,demo,001,2025-01-28_22h20.20.760,forced_choice,2024.2.4,None,2025-01-28 22h20.25.442427 -0500
1,-1,0.1,39,7,2,left,0.39277824899181724,None,2,7,39,15,44.44292791595217,,,,44.43634204089176,45.03316254,45.43570595793426,left,0.39277824899181724,None,demo,001,2025-01-28_22h20.20.760,forced_choice,2024.2.4,None,2025-01-28 22h20.25.442427 -0500
0.001,-1,0.1,40,8,2,right,0.3868942499393597,None,2,8,40,10,45.443845707923174,,,,45.43809812492691,46.033003540942445,46.42245345795527,right,0.3868942499393597,None,demo,001,2025-01-28_22h20.20.760,forced_choice,2024.2.4,None,2025-01-28 22h20.25.442427 -0500
0.1,1,0.1,41,9,2,right,0.24735945800784975,None,2,9,41,6,46.43278066592757,,,,46.424507165909745,47.020674874889664,47.27214949997142,right,0.24735945800784975,None,demo,001,2025-01-28_22h20.20.760,forced_choice,2024.2.4,None,2025-01-28 22h20.25.442427 -0500
0.1,1,0.1,42,10,2,right,0.42319045797921717,None,2,10,42,4,47.28279108298011,,,,47.27293074992485,47.870835374924354,48.30274612491485,right,0.42319045797921717,None,demo,001,2025-01-28_22h20.20.760,forced_choice,2024.2.4,None,2025-01-28 22h20.25.442427 -0500
0.0001,1,0.1,44,12,2,right,1.1605561659671366,None,2,12,44,1,49.226227290928364,,,,49.220465165912174,49.81635166599881,50.98481937497854,right,1.1605561659671366,None,demo,001,2025-01-28_22h20.20.760,forced_choice,2024.2.4,None,2025-01-28 22h20.25.442427 -0500
0.1,-1,0.1,45,13,2,left,0.32136074895970523,None,2,13,45,14,50.99256616597995,,,,50.98695070797112,51.58341408299748,51.91972212,left,0.32136074895970523,None,demo,001,2025-01-28_22h20.20.760,forced_choice,2024.2.4,None,2025-01-28 22h20.25.442427 -0500
0.001,1,0.1,47,15,2,left,0.4611832069931552,None,2,15,47,2,52.86006187496241,,,,52.85413254098967,53.44969295791816,53.918403499992564,left,0.4611832069931552,None,demo,001,2025-01-28_22h20.20.760,forced_choice,2024.2.4,None,2025-01-28 22h20.25.442427 -0500
0.0001,1,0.1,48,0,3,left,1.4844029990490526,None,3,0,48,1,53.92649141594302,,,,53.92040583293419,54.516268290928565,56.004936040961184,left,1.4844029990490526,None,demo,001,2025-01-28_22h20.20.760,forced_choice,2024.2.4,None,2025-01-28 22h20.25.442427 -0500
1,-1,0.1,49,1,3,left,0.2752142909448594,None,3,1,49,15,56.01604633289389,,,,56.00549124996178,56.604567165952176,56.88581120793242,left,0.2752142909448594,None,demo,001,2025-01-28_22h20.20.760,forced_choice,2024.2.4,None,2025-01-28 22h20.25.442427 -0500
0.1,-1,0.1,50,2,3,left,0.27853075007442385,None,3,2,50,14,56.89392466598656,,,,56.88837529090233,57.483130707987584,57.76866566599347,left,0.27853075007442385,None,demo,001,2025-01-28_22h20.20.760,forced_choice,2024.2.4,None,2025-01-28 22h20.25.442427 -0500
0.001,-1,0.1,51,3,3,left,0.4151673330925405,None,3,3,51,10,57.775748124928214,,,,57.770765624940395,58.36546058289241,58.78499137493782,left,0.4151673330925405,None,demo,001,2025-01-28_22h20.20.760,forced_choice,2024.2.4,None,2025-01-28 22h20.25.442427 -0500
0.1,1,0.1,52,4,3,right,0.2526146660093218,None,3,4,52,4,58.79301420797128,,,,58.78687633294612,59.383000915986486,59.63877345796209,right,0.2526146660093218,None,demo,001,2025-01-28_22h20.20.760,forced_choice,2024.2.4,None,2025-01-28 22h20.25.442427 -0500
1e-05,1,0.1,54,6,3,right,0.3232287490973249,None,3,6,54,0,60.67613879090641,,,,60.67057679092977,61.26602846,61.60172399994917,right,0.3232287490973249,None,demo,001,2025-01-28_22h20.20.760,forced_choice,2024.2.4,None,2025-01-28 22h20.25.442427 -0500
1e-05,-1,0.1,55,7,3,right,0.8779445409309119,None,3,7,55,8,61.61062237492297,,,,61.603914915933274,62.19966683292296,63.08447449991945,right,0.8779445409309119,None,demo,001,2025-01-28_22h20.20.760,forced_choice,2024.2.4,None,2025-01-28 22h20.25.442427 -0500
0.0001,-1,0.1,56,8,3,left,0.43831279093865305,None,3,8,56,9,63.09270374989137,,,,63.08626283297781,63.683164582937025,64.13496908,left,0.43831279093865305,None,demo,001,2025-01-28_22h20.20.760,forced_choice,2024.2.4,None,2025-01-28 22h20.25.442427 -0500
0.1,-1,0.1,58,10,3,left,0.21000399894546717,None,3,10,58,12,64.91053537488915,,,,64.90479983296245,65.49963649990968,65.71824099996593,left,0.21000399894546717,None,demo,001,2025-01-28_22h20.20.760,forced_choice,2024.2.4,None,2025-01-28 22h20.25.442427 -0500
0.01,1,0.1,59,11,3,right,0.3897420410066843,None,3,11,59,3,65.72713158291299,,,,65.72042779088952,66.33369374996983,66.73562758299522,right,0.3897420410066843,None,demo,001,2025-01-28_22h20.20.760,forced_choice,2024.2.4,None,2025-01-28 22h20.25.442427 -0500
1,1,0.1,60,12,3,right,0.15716179099399596,None,3,12,60,7,66.74417142,,,,66.73766787489876,67.33326274994761,67.50200979,right,0.15716179099399596,None,demo,001,2025-01-28_22h20.20.760,forced_choice,2024.2.4,None,2025-01-28 22h20.25.442427 -0500
0.1,1,0.1,61,13,3,right,0.3025653330842033,None,3,13,61,6,67.51008999999613,,,,67.50399816595018,68.09978266595863,68.40576754091308,right,0.3025653330842033,None,demo,001,2025-01-28_22h20.20.760,forced_choice,2024.2.4,None,2025-01-28 22h20.25.442427 -0500
0.001,1,0.1,62,14,3,right,0.7153622909681872,None,3,14,62,2,68.41602099989541,,,,68.40786749997642,69.00403254094999,69.72247604094446,right,0.7153622909681872,None,demo,001,2025-01-28_22h20.20.760,forced_choice,2024.2.4,None,2025-01-28 22h20.25.442427 -0500
0.01,-1,0.1,63,15,3,right,0.5949993329122663,None,3,15,63,11,69.73281545797363,,,,69.72451241593808,70.32046733,70.91894399991725,right,0.5949993329122663,None,demo,001,2025-01-28_22h20.20.760,forced_choice,2024.2.4,None,2025-01-28 22h20.25.442427 -0500
1,1,0.1,65,1,4,right,0.39922254101838917,None,4,1,65,7,71.69396108295768,,,,71.68803170789033,72.28309625,72.68467195797712,right,0.39922254101838917,None,demo,001,2025-01-28_22h20.20.760,forced_choice,2024.2.4,None,2025-01-28 22h20.25.442427 -0500
0.1,-1,0.1,66,2,4,left,0.3316811660770327,None,4,2,66,12,72.69071599992458,,,,72.68640112492722,73.28271371,73.61912529089022,left,0.3316811660770327,None,demo,001,2025-01-28_22h20.20.760,forced_choice,2024.2.4,None,2025-01-28 22h20.25.442427 -0500
0.0001,1,0.1,67,3,4,left,0.8639809159794822,None,4,3,67,1,73.62678358296398,,,,73.62131121,74.21643412,75.08557416591793,left,0.8639809159794822,None,demo,001,2025-01-28_22h20.20.760,forced_choice,2024.2.4,None,2025-01-28 22h20.25.442427 -0500
1e-05,-1,0.1,68,4,4,right,0.7322277500061318,None,4,4,68,8,75.09427695791237,,,,75.08763729094062,75.68306179,76.41817729,right,0.7322277500061318,None,demo,001,2025-01-28_22h20.20.760,forced_choice,2024.2.4,None,2025-01-28 22h20.25.442427 -0500
0.0001,-1,0.1,69,5,4,left,0.4656444990541786,None,4,5,69,9,76.42621012497693,,,,76.42031737498473,77.01653554092627,77.48510899988469,left,0.4656444990541786,None,demo,001,2025-01-28_22h20.20.760,forced_choice,2024.2.4,None,2025-01-28 22h20.25.442427 -0500
0.001,-1,0.1,71,7,4,left,1.4118285829899833,None,4,7,71,10,78.38321358291432,,,,78.37363154091872,78.96638499991968,80.38491916598286,left,1.4118285829899833,None,demo,001,2025-01-28_22h20.20.760,forced_choice,2024.2.4,None,2025-01-28 22h20.25.442427 -0500
1,-1,0.1,72,8,4,left,0.2670972499763593,None,4,8,72,15,80.39318149990868,,,,80.38692058296874,80.98303312493954,81.25356383,left,0.2670972499763593,None,demo,001,2025-01-28_22h20.20.760,forced_choice,2024.2.4,None,2025-01-28 22h20.25.442427 -0500
0.01,1,0.1,73,9,4,right,0.2841959990328178,None,4,9,73,3,81.26221992,,,,81.25640408298932,81.84973883291241,82.13900054094847,right,0.2841959990328178,None,demo,001,2025-01-28_22h20.20.760,forced_choice,2024.2.4,None,2025-01-28 22h20.25.442427 -0500
0.1,-1,0.1,74,10,4,left,0.23918062401935458,None,4,10,74,14,82.14939349994529,,,,82.14114974997938,82.73291229095776,82.98580412496813,left,0.23918062401935458,None,demo,001,2025-01-28_22h20.20.760,forced_choice,2024.2.4,None,2025-01-28 22h20.25.442427 -0500
1e-05,1,0.1,75,11,4,left,0.3360005411086604,None,4,11,75,0,82.99367829,,,,82.98807666590437,83.58305537491105,83.92228599998634,left,0.3360005411086604,None,demo,001,2025-01-28_22h20.20.760,forced_choice,2024.2.4,None,2025-01-28 22h20.25.442427 -0500
0.001,1,0.1,76,12,4,left,0.6485232489649206,None,4,12,76,2,83.93385854095686,,,,83.92369095794857,84.52050337498076,85.17224304098636,left,0.6485232489649206,None,demo,001,2025-01-28_22h20.20.760,forced_choice,2024.2.4,None,2025-01-28 22h20.25.442427 -0500
0.1,1,0.1,77,13,4,right,0.21503529092296958,None,4,13,77,4,85.18272995797452,,,,85.17443912499584,85.77102933288552,85.98890608293004,right,0.21503529092296958,None,demo,001,2025-01-28_22h20.20.760,forced_choice,2024.2.4,None,2025-01-28 22h20.25.442427 -0500
0.01,-1,0.1,78,14,4,left,1.5181843739701435,None,4,14,78,11,85.99972916592378,,,,85.99090354098007,86.58781479089521,88.11912454094272,left,1.5181843739701435,None,demo,001,2025-01-28_22h20.20.760,forced_choice,2024.2.4,None,2025-01-28 22h20.25.442427 -0500
0.1,1,0.1,79,15,4,right,0.27967274899128824,None,4,15,79,6,88.12691262492444,,,,88.12113258289173,88.71642571,89.00173570797779,right,0.27967274899128824,None,demo,001,2025-01-28_22h20.20.760,forced_choice,2024.2.4,None,2025-01-28 22h20.25.442427 -0500
0.1,1,0.1,80,0,5,right,0.1398292490048334,None,5,0,80,6,89.00887895794585,,,,89.00390745792538,89.60006749990862,89.75205933,right,0.1398292490048334,None,demo,001,2025-01-28_22h20.20.760,forced_choice,2024.2.4,None,2025-01-28 22h20.25.442427 -0500
1,1,0.1,81,1,5,right,0.069935624,None,5,1,81,7,89.76070429,,,,89.75425504089799,90.36694812495261,90.43987549992744,right,0.069935624,None,demo,001,2025-01-28_22h20.20.760,forced_choice,2024.2.4,None,2025-01-28 22h20.25.442427 -0500
0.1,1,0.1,82,2,5,right,0.1494531660573557,None,5,2,82,4,90.44946475,,,,90.44178504089359,91.03746404091362,91.18878454098012,right,0.1494531660573557,None,demo,001,2025-01-28_22h20.20.760,forced_choice,2024.2.4,None,2025-01-28 22h20.25.442427 -0500
1e-05,-1,0.1,84,4,5,left,0.3366487909806892,None,5,4,84,8,91.99936983291991,,,,91.99175429099705,92.58719895791728,92.93570208293386,left,0.3366487909806892,None,demo,001,2025-01-28_22h20.20.760,forced_choice,2024.2.4,None,2025-01-28 22h20.25.442427 -0500
0.0001,1,0.1,85,5,5,right,1.4036507909186184,None,5,5,85,1,92.94377558294218,,,,92.93786862492561,93.53313808294479,94.95177487493493,right,1.4036507909186184,None,demo,001,2025-01-28_22h20.20.760,forced_choice,2024.2.4,None,2025-01-28 22h20.25.442427 -0500
0.01,1,0.1,86,6,5,left,0.5470816660672426,None,5,6,86,3,94.95993383298628,,,,94.95402387494687,95.54973091592547,96.10240933299065,left,0.5470816660672426,None,demo,001,2025-01-28_22h20.20.760,forced_choice,2024.2.4,None,2025-01-28 22h20.25.442427 -0500
0.001,-1,0.1,87,7,5,left,0.4141325829550624,None,5,7,87,10,96.10904108,,,,96.10425779095385,96.69977849989664,97.11860470799729,left,0.4141325829550624,None,demo,001,2025-01-28_22h20.20.760,forced_choice,2024.2.4,None,2025-01-28 22h20.25.442427 -0500
0.0001,-1,0.1,88,8,5,left,0.2894670410314575,None,5,8,88,9,97.12624071,,,,97.12074079096783,97.71629929088522,98.01820237492211,left,0.2894670410314575,None,demo,001,2025-01-28_22h20.20.760,forced_choice,2024.2.4,None,2025-01-28 22h20.25.442427 -0500
0.001,1,0.1,89,9,5,right,0.45741537399590015,None,5,9,89,2,98.02619158290327,,,,98.02043395792134,98.61631204094738,99.08495295792818,right,0.45741537399590015,None,demo,001,2025-01-28_22h20.20.760,forced_choice,2024.2.4,None,2025-01-28 22h20.25.442427 -0500
1,-1,0.1,91,11,5,left,0.1708249159855768,None,5,11,91,15,99.80869287496898,,,,99.80384158,100.39982929092366,100.58579783292953,left,0.1708249159855768,None,demo,001,2025-01-28_22h20.20.760,forced_choice,2024.2.4,None,2025-01-28 22h20.25.442427 -0500
0.01,-1,0.1,92,12,5,left,0.9503284159582108,None,5,12,92,11,100.59281537495553,,,,100.58791208290495,101.18330787494779,102.13924441591371,left,0.9503284159582108,None,demo,001,2025-01-28_22h20.20.760,forced_choice,2024.2.4,None,2025-01-28 22h20.25.442427 -0500
0.1,-1,0.1,93,13,5,left,0.2594164579641074,None,5,13,93,12,102.14949308289215,,,,102.14127662498504,102.73823179095052,103.00194870796986,left,0.2594164579641074,None,demo,001,2025-01-28_22h20.20.760,forced_choice,2024.2.4,None,2025-01-28 22h20.25.442427 -0500
1e-05,1,0.1,94,14,5,left,0.45782325009349734,None,5,14,94,0,103.0099819159368,,,,103.00419304089155,103.59976262494456,104.06910974998027,left,0.45782325009349734,None,demo,001,2025-01-28_22h20.20.760,forced_choice,2024.2.4,None,2025-01-28 22h20.25.442427 -0500
0.1,-1,0.1,95,15,5,left,0.3536827490897849,None,5,15,95,14,104.07648108294234,,,,104.0712020409992,104.68393120798282,105.05243104090914,left,0.3536827490897849,None,demo,001,2025-01-28_22h20.20.760,forced_choice,2024.2.4,None,2025-01-28 22h20.25.442427 -0500
0.001,-1,0.1,96,0,6,right,0.097992083,None,6,0,96,10,105.05930954089854,,,,105.05455162492581,105.64959124999586,105.75247016595677,right,0.097992083,None,demo,001,2025-01-28_22h20.20.760,forced_choice,2024.2.4,None,2025-01-28 22h20.25.442427 -0500
1e-05,-1,0.1,97,1,6,right,0.8638138739624992,None,6,1,97,8,105.76016220799647,,,,105.7546953749843,106.34975133289117,107.22095120791346,right,0.8638138739624992,None,demo,001,2025-01-28_22h20.20.760,forced_choice,2024.2.4,None,2025-01-28 22h20.25.442427 -0500
0.0001,1,0.1,98,2,6,left,0.432703125,None,6,2,98,1,107.2362173749134,,,,107.22168149997015,107.8167797079077,108.25205508293584,left,0.432703125,None,demo,001,2025-01-28_22h20.20.760,forced_choice,2024.2.4,None,2025-01-28 22h20.25.442427 -0500
0.1,1,0.1,99,3,6,right,0.37178966600913554,None,6,3,99,6,108.25996099994518,,,,108.25387104100082,108.84967845794745,109.23514874989633,right,0.37178966600913554,None,demo,001,2025-01-28_22h20.20.760,forced_choice,2024.2.4,None,2025-01-28 22h20.25.442427 -0500
0.0001,-1,0.1,100,4,6,left,0.8192537910072133,None,6,4,100,9,109.24336808291264,,,,109.23746337497141,109.83317970798817,110.65573466592468,left,0.8192537910072133,None,demo,001,2025-01-28_22h20.20.760,forced_choice,2024.2.4,None,2025-01-28 22h20.25.442427 -0500
0.1,1,0.1,101,5,6,right,0.2567555410787463,None,6,5,101,4,110.66700829099864,,,,110.6578261249233,111.24968508293387,111.51837562490255,right,0.2567555410787463,None,demo,001,2025-01-28_22h20.20.760,forced_choice,2024.2.4,None,2025-01-28 22h20.25.442427 -0500
0.1,-1,0.1,103,7,6,left,0.47511512401979417,None,6,7,103,12,112.52611054095905,,,,112.5209499578923,113.11635033297352,113.60232037492096,left,0.47511512401979417,None,demo,001,2025-01-28_22h20.20.760,forced_choice,2024.2.4,None,2025-01-28 22h20.25.442427 -0500
0.001,1,0.1,104,8,6,left,1.0256498319795355,None,6,8,104,2,113.61057320795953,,,,113.60460887488443,114.19972249993589,115.23449204093777,left,1.0256498319795355,None,demo,001,2025-01-28_22h20.20.760,forced_choice,2024.2.4,None,2025-01-28 22h20.25.442427 -0500
0.01,1,0.1,105,9,6,left,0.4041949580423534,None,6,9,105,3,115.24090079090092,,,,115.23620966589078,115.83310041599907,116.23921112495009,left,0.4041949580423534,None,demo,001,2025-01-28_22h20.20.760,forced_choice,2024.2.4,None,2025-01-28 22h20.25.442427 -0500
1e-05,1,0.1,106,10,6,left,0.33966570801567286,None,6,10,106,0,116.24935079098213,,,,116.24136124993674,116.83865774993319,117.1848723749863,left,0.33966570801567286,None,demo,001,2025-01-28_22h20.20.760,forced_choice,2024.2.4,None,2025-01-28 22h20.25.442427 -0500
0.01,-1,0.1,107,11,6,left,0.33209383208304644,None,6,11,107,11,117.19160991592798,,,,117.1870189999463,117.78326958289836,118.11872416594997,left,0.33209383208304644,None,demo,001,2025-01-28_22h20.20.760,forced_choice,2024.2.4,None,2025-01-28 22h20.25.442427 -0500
0.1,-1,0.1,108,12,6,left,0.079628666,None,6,12,108,14,118.12597945798188,,,,118.12085524993017,118.71666854096111,118.80233449989464,left,0.079628666,None,demo,001,2025-01-28_22h20.20.760,forced_choice,2024.2.4,None,2025-01-28 22h20.25.442427 -0500
1,1,0.1,110,14,6,right,1.3779477070784196,None,6,14,110,7,119.67560987488832,,,,119.67119020794053,120.26639429095667,121.65158304094803,right,1.3779477070784196,None,demo,001,2025-01-28_22h20.20.760,forced_choice,2024.2.4,None,2025-01-28 22h20.25.442427 -0500
1,-1,0.1,111,15,6,left,0.5727873749565333,None,6,15,111,15,121.65945462498348,,,,121.65376649994869,122.24937837489415,122.83500295795966,left,0.5727873749565333,None,demo,001,2025-01-28_22h20.20.760,forced_choice,2024.2.4,None,2025-01-28 22h20.25.442427 -0500
1,1,0.1,112,0,7,right,0.5000672499882057,None,7,0,112,7,122.84366679098457,,,,122.83707708294969,123.43306141591165,123.93953979096841,right,0.5000672499882057,None,demo,001,2025-01-28_22h20.20.760,forced_choice,2024.2.4,None,2025-01-28 22h20.25.442427 -0500
0.1,-1,0.1,113,1,7,left,0.26867829100228846,None,7,1,113,12,123.94933249999303,,,,123.94161333295051,124.5354685409693,124.81832716590725,left,0.26867829100228846,None,demo,001,2025-01-28_22h20.20.760,forced_choice,2024.2.4,None,2025-01-28 22h20.25.442427 -0500
0.01,1,0.1,115,3,7,left,0.6421259159687907,None,7,3,115,3,125.86621104099322,,,,125.85736454091966,126.46697745798156,127.11826558294706,left,0.6421259159687907,None,demo,001,2025-01-28_22h20.20.760,forced_choice,2024.2.4,None,2025-01-28 22h20.25.442427 -0500
0.001,-1,0.1,117,5,7,left,1.562678124057129,None,7,5,117,10,127.97636879095808,,,,127.97107199998572,128.5834629579913,130.15143695799634,left,1.562678124057129,None,demo,001,2025-01-28_22h20.20.760,forced_choice,2024.2.4,None,2025-01-28 22h20.25.442427 -0500
0.01,-1,0.1,118,6,7,left,2.062138583045453,None,7,6,118,11,130.15942854096647,,,,130.1535235,130.7498718749266,132.81840237497818,left,2.062138583045453,None,demo,001,2025-01-28_22h20.20.760,forced_choice,2024.2.4,None,2025-01-28 22h20.25.442427 -0500
0.1,1,0.1,119,7,7,right,0.24056004104204476,None,7,7,119,4,132.8253808328882,,,,132.82045495789498,133.41636795795057,133.66830245789606,right,0.24056004104204476,None,demo,001,2025-01-28_22h20.20.760,forced_choice,2024.2.4,None,2025-01-28 22h20.25.442427 -0500
0.001,1,0.1,120,8,7,right,0.7530921250581741,None,7,8,120,2,133.67648249992635,,,,133.67045462492388,134.26776137494016,135.03527279093396,right,0.7530921250581741,None,demo,001,2025-01-28_22h20.20.760,forced_choice,2024.2.4,None,2025-01-28 22h20.25.442427 -0500
0.0001,1,0.1,121,9,7,left,0.632933582,None,7,9,121,1,135.04288766591344,,,,135.03756587498356,135.6330067,136.26993841596413,left,0.632933582,None,demo,001,2025-01-28_22h20.20.760,forced_choice,2024.2.4,None,2025-01-28 22h20.25.442427 -0500
0.0001,-1,0.1,122,10,7,left,0.42149658303242177,None,7,10,122,9,136.28313891589642,,,,136.2719917499926,136.8663427499123,137.30225733295083,left,0.42149658303242177,None,demo,001,2025-01-28_22h20.20.760,forced_choice,2024.2.4,None,2025-01-28 22h20.25.442427 -0500
1e-05,1,0.1,123,11,7,left,0.7141813329653814,None,7,11,123,0,137.31640670797788,,,,137.30420420796145,137.89968779089395,138.6182146659121,left,0.7141813329653814,None,demo,001,2025-01-28_22h20.20.760,forced_choice,2024.2.4,None,2025-01-28 22h20.25.442427 -0500
1e-05,-1,0.1,124,12,7,left,0.3522923750570044,None,7,12,124,8,138.62625491595827,,,,138.62033999990672,139.21647870796733,139.57269545795862,left,0.3522923750570044,None,demo,001,2025-01-28_22h20.20.760,forced_choice,2024.2.4,None,2025-01-28 22h20.25.442427 -0500
1,-1,0.1,125,13,7,left,0.45096512394957244,None,7,13,125,15,139.5826627908973,,,,139.57461141597014,140.1707862,140.63568891596515,left,0.45096512394957244,None,demo,001,2025-01-28_22h20.20.760,forced_choice,2024.2.4,None,2025-01-28 22h20.25.442427 -0500
0.1,1,0.1,126,14,7,right,0.1916538740042597,None,7,14,126,6,140.6428546,,,,140.63779266597703,141.23310216597747,141.4347597908927,right,0.1916538740042597,None,demo,001,2025-01-28_22h20.20.760,forced_choice,2024.2.4,None,2025-01-28 22h20.25.442427 -0500
0.1,-1,0.1,127,15,7,left,0.20152324892114848,None,7,15,127,14,141.44293020793702,,,,141.43642387492582,142.03319041593932,142.23882124992087,left,0.20152324892114848,None,demo,001,2025-01-28_22h20.20.760,forced_choice,2024.2.4,None,2025-01-28 22h20.25.442427 -0500
0.01,-1,0.1,128,0,8,left,0.7114937489386648,None,8,0,128,11,142.2493582079187,,,,142.24094733293168,142.8501769999275,143.56716595799662,left,0.7114937489386648,None,demo,001,2025-01-28_22h20.20.760,forced_choice,2024.2.4,None,2025-01-28 22h20.25.442427 -0500
0.1,-1,0.1,129,1,8,left,0.33521841594483703,None,8,1,129,12,143.57328712497838,,,,143.5685787498951,144.15450337494258,144.50166574993636,left,0.33521841594483703,None,demo,001,2025-01-28_22h20.20.760,forced_choice,2024.2.4,None,2025-01-28 22h20.25.442427 -0500
0.01,1,0.1,130,2,8,right,0.3709252489497885,None,8,2,130,3,144.50989254098386,,,,144.5038068749709,145.09974104096182,145.48858320794534,right,0.3709252489497885,None,demo,001,2025-01-28_22h20.20.760,forced_choice,2024.2.4,None,2025-01-28 22h20.25.442427 -0500
1,1,0.1,132,4,8,right,0.825996749,None,8,4,132,7,146.37517508293968,,,,146.37011612497736,146.9666060829768,147.8023192079272,right,0.825996749,None,demo,001,2025-01-28_22h20.20.760,forced_choice,2024.2.4,None,2025-01-28 22h20.25.442427 -0500
1e-05,1,0.1,133,5,8,left,0.4087219570064917,None,8,5,133,0,147.80920683289878,,,,147.8044028748991,148.3997812079033,148.81816874991637,left,0.4087219570064917,None,demo,001,2025-01-28_22h20.20.760,forced_choice,2024.2.4,None,2025-01-28 22h20.25.442427 -0500
0.1,-1,0.1,134,6,8,left,0.3291202490217984,None,8,6,134,14,148.82690312492196,,,,148.8203299579909,149.4164807,149.75150641589426,left,0.3291202490217984,None,demo,001,2025-01-28_22h20.20.760,forced_choice,2024.2.4,None,2025-01-28 22h20.25.442427 -0500
1e-05,-1,0.1,135,7,8,left,0.4834182079648599,None,8,7,135,8,149.75986733299214,,,,149.7538289160002,150.34969079098664,150.84247258293908,left,0.4834182079648599,None,demo,001,2025-01-28_22h20.20.760,forced_choice,2024.2.4,None,2025-01-28 22h20.25.442427 -0500
0.1,1,0.1,136,8,8,right,0.2997916239546612,None,8,8,136,6,150.8493506659288,,,,150.84322604094632,151.43774287495762,151.7395934999222,right,0.2997916239546612,None,demo,001,2025-01-28_22h20.20.760,forced_choice,2024.2.4,None,2025-01-28 22h20.25.442427 -0500
0.0001,-1,0.1,137,9,8,right,1.5136824580840766,None,8,9,137,9,151.74939008289948,,,,151.74178037489764,152.3378471249016,153.85683504096232,right,1.5136824580840766,None,demo,001,2025-01-28_22h20.20.760,forced_choice,2024.2.4,None,2025-01-28 22h20.25.442427 -0500
0.001,-1,0.1,138,10,8,left,0.7048830830026418,None,8,10,138,10,153.86605591594707,,,,153.8586681659799,154.4545929998858,155.16818699997384,left,0.7048830830026418,None,demo,001,2025-01-28_22h20.20.760,forced_choice,2024.2.4,None,2025-01-28 22h20.25.442427 -0500
0.0001,1,0.1,139,11,8,left,0.5281400829553604,None,8,11,139,1,155.17635745799635,,,,155.17041766596958,155.76636691589374,156.30209149990696,left,0.5281400829553604,None,demo,001,2025-01-28_22h20.20.760,forced_choice,2024.2.4,None,2025-01-28 22h20.25.442427 -0500
0.001,1,0.1,141,13,8,left,1.039849956985563,None,8,13,141,2,157.25960812496487,,,,157.2535916659981,157.84887495799921,158.90153304091655,left,1.039849956985563,None,demo,001,2025-01-28_22h20.20.760,forced_choice,2024.2.4,None,2025-01-28 22h20.25.442427 -0500
0.1,1,0.1,142,14,8,right,0.4830714160343632,None,8,14,142,4,158.90989516593982,,,,158.90344812499825,159.5012177079916,159.99010295793414,right,0.4830714160343632,None,demo,001,2025-01-28_22h20.20.760,forced_choice,2024.2.4,None,2025-01-28 22h20.25.442427 -0500
1,-1,0.1,143,15,8,left,0.3448679579887539,None,8,15,143,15,159.99862191593274,,,,159.99205845792312,160.58750066591892,160.9356924999738,left,0.3448679579887539,None,demo,001,2025-01-28_22h20.20.760,forced_choice,2024.2.4,None,2025-01-28 22h20.25.442427 -0500
0.001,-1,0.1,144,0,9,left,0.38815770798828453,None,9,0,144,10,160.943297,,,,160.93780970794614,161.53309320798144,161.93492837494705,left,0.38815770798828453,None,demo,001,2025-01-28_22h20.20.760,forced_choice,2024.2.4,None,2025-01-28 22h20.25.442427 -0500
0.1,1,0.1,145,1,9,right,0.23572649899870157,None,9,1,145,6,161.94229424989317,,,,161.93710737489164,162.53362362494227,162.7729957079282,right,0.23572649899870157,None,demo,001,2025-01-28_22h20.20.760,forced_choice,2024.2.4,None,2025-01-28 22h20.25.442427 -0500
0.01,-1,0.1,146,2,9,right,0.8691575820557773,None,9,2,146,11,162.78281249990687,,,,162.77494487492368,163.37108049995732,164.25172587495763,right,0.8691575820557773,None,demo,001,2025-01-28_22h20.20.760,forced_choice,2024.2.4,None,2025-01-28 22h20.25.442427 -0500
1e-05,1,0.1,147,3,9,left,0.2745893329847604,None,9,3,147,0,164.25967441592366,,,,164.25390641589183,164.8487702079583,165.1352631659247,left,0.2745893329847604,None,demo,001,2025-01-28_22h20.20.760,forced_choice,2024.2.4,None,2025-01-28 22h20.25.442427 -0500
0.01,1,0.1,148,4,9,left,0.5891747910063714,None,9,4,148,3,165.1437649159925,,,,165.1371577909449,165.73329845792614,166.33500608289614,left,0.5891747910063714,None,demo,001,2025-01-28_22h20.20.760,forced_choice,2024.2.4,None,2025-01-28 22h20.25.442427 -0500
0.1,-1,0.1,149,5,9,left,0.5109335411107168,None,9,5,149,14,166.34342254092917,,,,166.33735795796383,166.9332484579645,167.45272108295467,left,0.5109335411107168,None,demo,001,2025-01-28_22h20.20.760,forced_choice,2024.2.4,None,2025-01-28 22h20.25.442427 -0500
1,1,0.1,150,6,9,right,0.47633424995001405,None,9,6,150,7,167.46650324994698,,,,167.45500120799989,168.0498305829242,168.5350032079732,right,0.47633424995001405,None,demo,001,2025-01-28_22h20.20.760,forced_choice,2024.2.4,None,2025-01-28 22h20.25.442427 -0500
1,-1,0.1,151,7,9,left,0.45004924898967147,None,9,7,151,15,168.5429368329933,,,,168.53733437496703,169.13303083297797,169.5856780828908,left,0.45004924898967147,None,demo,001,2025-01-28_22h20.20.760,forced_choice,2024.2.4,None,2025-01-28 22h20.25.442427 -0500
0.1,1,0.1,152,8,9,right,0.24647079093847424,None,9,8,152,4,169.59408458299004,,,,169.58783399988897,170.18298420798965,170.43531216599513,right,0.24647079093847424,None,demo,001,2025-01-28_22h20.20.760,forced_choice,2024.2.4,None,2025-01-28 22h20.25.442427 -0500
0.0001,1,0.1,153,9,9,right,1.0998869159957394,None,9,9,153,1,170.44278037489858,,,,170.43747766595334,171.03314116597176,172.1357117498992,right,1.0998869159957394,None,demo,001,2025-01-28_22h20.20.760,forced_choice,2024.2.4,None,2025-01-28 22h20.25.442427 -0500
0.0001,-1,0.1,156,12,9,right,0.5312358330702409,None,9,12,156,9,173.9493977,,,,173.94114604091737,174.5379424999701,175.07232408295386,right,0.5312358330702409,None,demo,001,2025-01-28_22h20.20.760,forced_choice,2024.2.4,None,2025-01-28 22h20.25.442427 -0500
1e-05,-1,0.1,157,13,9,left,0.5623001659987494,None,9,13,157,8,175.0826767499093,,,,175.07442816591356,175.67075379099697,176.23599958291743,left,0.5623001659987494,None,demo,001,2025-01-28_22h20.20.760,forced_choice,2024.2.4,None,2025-01-28 22h20.25.442427 -0500
0.001,1,0.1,158,14,9,left,1.150331748998724,None,9,14,158,2,176.24270233290736,,,,176.23798808292486,176.8505115408916,178.00686166598462,left,1.150331748998724,None,demo,001,2025-01-28_22h20.20.760,forced_choice,2024.2.4,None,2025-01-28 22h20.25.442427 -0500
0.1,-1,0.1,159,15,9,left,0.4166914160596207,None,9,15,159,12,178.0160624999553,,,,178.00886662490666,178.61714408290572,179.03676133288536,left,0.4166914160596207,None,demo,001,2025-01-28_22h20.20.760,forced_choice,2024.2.4,None,2025-01-28 22h20.25.442427 -0500
1e-05,1,0.1,160,0,10,left,0.3736905410187319,None,10,0,160,0,179.0486168329371,,,,179.03807408292778,179.63314766599797,180.0188169159228,left,0.3736905410187319,None,demo,001,2025-01-28_22h20.20.760,forced_choice,2024.2.4,None,2025-01-28 22h20.25.442427 -0500
0.001,1,0.1,161,1,10,left,1.019471832900308,None,10,1,161,2,180.02686466590967,,,,180.0206251249183,180.61637670791242,181.63932712492533,left,1.019471832900308,None,demo,001,2025-01-28_22h20.20.760,forced_choice,2024.2.4,None,2025-01-28 22h20.25.442427 -0500
1e-05,-1,0.1,162,2,10,left,0.32470229105092585,None,10,2,162,8,181.6494518329855,,,,181.64132870791946,182.2502039578976,182.5856205408927,left,0.32470229105092585,None,demo,001,2025-01-28_22h20.20.760,forced_choice,2024.2.4,None,2025-01-28 22h20.25.442427 -0500
0.001,-1,0.1,164,4,10,left,0.27524945698678493,None,10,4,164,10,183.37642141594552,,,,183.36987041588873,183.98354670789558,184.26863304094877,left,0.27524945698678493,None,demo,001,2025-01-28_22h20.20.760,forced_choice,2024.2.4,None,2025-01-28 22h20.25.442427 -0500
0.0001,-1,0.1,166,6,10,left,0.359903333,None,10,6,166,9,185.2104777499335,,,,185.2043741659727,185.7997989159776,186.1671642079018,left,0.359903333,None,demo,001,2025-01-28_22h20.20.760,forced_choice,2024.2.4,None,2025-01-28 22h20.25.442427 -0500
0.01,1,0.1,167,7,10,right,0.42609787406399846,None,10,7,167,3,186.17261899996083,,,,186.16829816589598,186.7546420409344,187.18571291596163,right,0.42609787406399846,None,demo,001,2025-01-28_22h20.20.760,forced_choice,2024.2.4,None,2025-01-28 22h20.25.442427 -0500
0.1,1,0.1,168,8,10,right,0.3896672910777852,None,10,8,168,4,187.19226079096552,,,,187.18765474995598,187.78307691588998,188.18570420797914,right,0.3896672910777852,None,demo,001,2025-01-28_22h20.20.760,forced_choice,2024.2.4,None,2025-01-28 22h20.25.442427 -0500
0.1,-1,0.1,169,9,10,left,1.477557874051854,None,10,9,169,12,188.19464595790487,,,,188.18798791593872,188.78320158296265,190.26805308298208,left,1.477557874051854,None,demo,001,2025-01-28_22h20.20.760,forced_choice,2024.2.4,None,2025-01-28 22h20.25.442427 -0500
0.1,1,0.1,170,10,10,right,0.3582497490569949,None,10,10,170,6,190.27655391592998,,,,190.26998549990822,190.86636399989948,191.23995874996763,right,0.3582497490569949,None,demo,001,2025-01-28_22h20.20.760,forced_choice,2024.2.4,None,2025-01-28 22h20.25.442427 -0500
1,1,0.1,171,11,10,right,0.33272187400143594,None,10,11,171,7,191.24960883299354,,,,191.24155562499072,191.83745204098523,192.1719595,right,0.33272187400143594,None,demo,001,2025-01-28_22h20.20.760,forced_choice,2024.2.4,None,2025-01-28 22h20.25.442427 -0500
0.1,-1,0.1,172,12,10,left,0.2367317909374833,None,10,12,172,14,192.18274674995337,,,,192.17308929096907,192.77037208294496,193.0185881248908,left,0.2367317909374833,None,demo,001,2025-01-28_22h20.20.760,forced_choice,2024.2.4,None,2025-01-28 22h20.25.442427 -0500
0.01,-1,0.1,173,13,10,left,0.23810675006825477,None,10,13,173,11,193.02631870796904,,,,193.02073020790704,193.61642033292446,193.8682564579649,left,0.23810675006825477,None,demo,001,2025-01-28_22h20.20.760,forced_choice,2024.2.4,None,2025-01-28 22h20.25.442427 -0500
1,-1,0.1,174,14,10,left,0.18102058197837323,None,10,14,174,15,193.87675787496846,,,,193.87043741589878,194.46652849996462,194.65147833293304,left,0.18102058197837323,None,demo,001,2025-01-28_22h20.20.760,forced_choice,2024.2.4,None,2025-01-28 22h20.25.442427 -0500
0.0001,1,0.1,175,15,10,left,1.4399062079610303,None,10,15,175,1,194.66008087492082,,,,194.6533614579821,195.26662349991966,196.71908470790368,left,1.4399062079610303,None,demo,001,2025-01-28_22h20.20.760,forced_choice,2024.2.4,None,2025-01-28 22h20.25.442427 -0500
0.01,-1,0.1,176,0,11,right,0.777157916,None,11,0,176,11,196.72705816593952,,,,196.72131816588808,197.3162921249168,198.1021459159674,right,0.777157916,None,demo,001,2025-01-28_22h20.20.760,forced_choice,2024.2.4,None,2025-01-28 22h20.25.442427 -0500
0.1,-1,0.1,177,1,11,left,0.404679166,None,11,1,177,12,198.10904533299617,,,,198.1041992,198.69970866595395,199.11827308288775,left,0.404679166,None,demo,001,2025-01-28_22h20.20.760,forced_choice,2024.2.4,None,2025-01-28 22h20.25.442427 -0500
0.0001,1,0.1,178,2,11,left,0.31066362489946187,None,11,2,178,1,199.12592595792376,,,,199.12001462490298,199.71674433292355,200.03575229097623,left,0.31066362489946187,None,demo,001,2025-01-28_22h20.20.760,forced_choice,2024.2.4,None,2025-01-28 22h20.25.442427 -0500
0.1,1,0.1,179,3,11,right,1.8785485819680616,None,11,3,179,6,200.04434304090682,,,,200.03789187490474,200.6328942909604,202.51885958295316,right,1.8785485819680616,None,demo,001,2025-01-28_22h20.20.760,forced_choice,2024.2.4,None,2025-01-28 22h20.25.442427 -0500
0.001,-1,0.1,180,4,11,right,0.1949684580322355,None,11,4,180,10,202.5265457079513,,,,202.52071204094682,203.11638062493876,203.31827533291653,right,0.1949684580322355,None,demo,001,2025-01-28_22h20.20.760,forced_choice,2024.2.4,None,2025-01-28 22h20.25.442427 -0500
0.1,1,0.1,182,6,11,right,0.049670041,None,11,6,182,4,204.05917391588446,,,,204.0536952499533,204.64967929094564,204.70201408292633,right,0.049670041,None,demo,001,2025-01-28_22h20.20.760,forced_choice,2024.2.4,None,2025-01-28 22h20.25.442427 -0500
0.01,1,0.1,183,7,11,right,0.26649033301509917,None,11,7,183,3,204.70971279090736,,,,204.70430966594722,205.29980679089203,205.56906208291184,right,0.26649033301509917,None,demo,001,2025-01-28_22h20.20.760,forced_choice,2024.2.4,None,2025-01-28 22h20.25.442427 -0500
0.001,1,0.1,184,8,11,left,0.5089971660636365,None,11,8,184,2,205.5765361658996,,,,205.57127212488558,206.1663494,206.68541187490337,left,0.5089971660636365,None,demo,001,2025-01-28_22h20.20.760,forced_choice,2024.2.4,None,2025-01-28 22h20.25.442427 -0500
1,-1,0.1,185,9,11,left,0.6381573330145329,None,11,9,185,15,206.69425333291292,,,,206.68768749991432,207.2831089159008,207.93506454094313,left,0.6381573330145329,None,demo,001,2025-01-28_22h20.20.760,forced_choice,2024.2.4,None,2025-01-28 22h20.25.442427 -0500
1,1,0.1,186,10,11,right,0.492145,None,11,10,186,7,207.94382966589183,,,,207.93708195793442,208.53309012495447,209.03569954098202,right,0.492145,None,demo,001,2025-01-28_22h20.20.760,forced_choice,2024.2.4,None,2025-01-28 22h20.25.442427 -0500
1e-05,-1,0.1,187,11,11,right,1.2610151240369305,None,11,11,187,8,209.0433020829223,,,,209.03776904090773,209.63315512496047,210.90232208289672,right,1.2610151240369305,None,demo,001,2025-01-28_22h20.20.760,forced_choice,2024.2.4,None,2025-01-28 22h20.25.442427 -0500
0.0001,-1,0.1,188,12,11,right,0.3274774570018053,None,11,12,188,9,210.91085187497083,,,,210.90453520789742,211.4997622499941,211.83494370791595,right,0.3274774570018053,None,demo,001,2025-01-28_22h20.20.760,forced_choice,2024.2.4,None,2025-01-28 22h20.25.442427 -0500
1e-05,1,0.1,190,14,11,right,0.2902580830268562,None,11,14,190,0,212.86007262498606,,,,212.85475320799742,213.4499455409823,213.75165962497704,right,0.2902580830268562,None,demo,001,2025-01-28_22h20.20.760,forced_choice,2024.2.4,None,2025-01-28 22h20.25.442427 -0500
0.1,-1,0.1,191,15,11,left,0.3521641659317538,None,11,15,191,14,213.75710991595406,,,,213.75322991597932,214.3498533749953,214.7038561248919,left,0.3521641659317538,None,demo,001,2025-01-28_22h20.20.760,forced_choice,2024.2.4,None,2025-01-28 22h20.25.442427 -0500
1,-1,0.1,192,0,12,left,0.23752491595223546,None,12,0,192,15,214.7154041659087,,,,214.70498524990398,215.2997669579927,215.5525643749861,left,0.23752491595223546,None,demo,001,2025-01-28_22h20.20.760,forced_choice,2024.2.4,None,2025-01-28 22h20.25.442427 -0500
0.01,1,0.1,193,1,12,left,0.2563830829458311,None,12,1,193,3,215.56664729095064,,,,215.55449899996165,216.14967129088473,216.4182769159088,left,0.2563830829458311,None,demo,001,2025-01-28_22h20.20.760,forced_choice,2024.2.4,None,2025-01-28 22h20.25.442427 -0500
0.0001,-1,0.1,194,2,12,left,0.6679632490267977,None,12,2,194,9,216.4252175829606,,,,216.42057545797434,217.0163786249468,217.68967483297456,left,0.6679632490267977,None,demo,001,2025-01-28_22h20.20.760,forced_choice,2024.2.4,None,2025-01-28 22h20.25.442427 -0500
0.001,1,0.1,195,3,12,right,0.49292254098691046,None,12,3,195,2,217.6992845829809,,,,217.69194737495854,218.2880951659754,218.78543533291668,right,0.49292254098691046,None,demo,001,2025-01-28_22h20.20.760,forced_choice,2024.2.4,None,2025-01-28 22h20.25.442427 -0500
0.1,1,0.1,196,4,12,right,0.3931117909960449,None,12,4,196,6,218.7909300409956,,,,218.78732891590334,219.38299729092978,219.7855185829103,right,0.3931117909960449,None,demo,001,2025-01-28_22h20.20.760,forced_choice,2024.2.4,None,2025-01-28 22h20.25.442427 -0500
0.1,1,0.1,198,6,12,right,0.3784790000645444,None,12,6,198,4,220.6766060409136,,,,220.6711596,221.2664414999308,221.6522959,right,0.3784790000645444,None,demo,001,2025-01-28_22h20.20.760,forced_choice,2024.2.4,None,2025-01-28 22h20.25.442427 -0500
1,1,0.1,199,7,12,right,0.32192183297593147,None,12,7,199,7,221.66086195793469,,,,221.6543627079809,222.24994458293077,222.58574437489733,right,0.32192183297593147,None,demo,001,2025-01-28_22h20.20.760,forced_choice,2024.2.4,None,2025-01-28 22h20.25.442427 -0500
1e-05,1,0.1,200,8,12,right,0.33771424903534353,None,12,8,200,0,222.59358279092703,,,,222.58768891589716,223.18313666596077,223.52300704095978,right,0.33771424903534353,None,demo,001,2025-01-28_22h20.20.760,forced_choice,2024.2.4,None,2025-01-28 22h20.25.442427 -0500
0.01,-1,0.1,202,10,12,left,1.4483386659994721,None,12,10,202,11,224.5243302079616,,,,224.52020658296533,225.11646479088813,226.56819645792712,left,1.4483386659994721,None,demo,001,2025-01-28_22h20.20.760,forced_choice,2024.2.4,None,2025-01-28 22h20.25.442427 -0500
0.0001,1,0.1,203,11,12,left,0.5791635829955339,None,12,11,203,1,226.5764268329367,,,,226.5703672079835,227.16664862493053,227.75167454092298,left,0.5791635829955339,None,demo,001,2025-01-28_22h20.20.760,forced_choice,2024.2.4,None,2025-01-28 22h20.25.442427 -0500
0.001,-1,0.1,204,12,12,left,0.5871318320278078,None,12,12,204,10,227.7574587078998,,,,227.75376270792913,228.34957937488798,228.9505876249168,left,0.5871318320278078,None,demo,001,2025-01-28_22h20.20.760,forced_choice,2024.2.4,None,2025-01-28 22h20.25.442427 -0500
0.1,-1,0.1,205,13,12,left,0.390605291,None,12,13,205,14,228.95616858289577,,,,228.95207508292515,229.53825133293867,229.9349989159964,left,0.390605291,None,demo,001,2025-01-28_22h20.20.760,forced_choice,2024.2.4,None,2025-01-28 22h20.25.442427 -0500
1e-05,-1,0.1,206,14,12,left,1.2727010819362476,None,12,14,206,8,229.94292566599324,,,,229.93680804094765,230.53300116595346,231.81903020793106,left,1.2727010819362476,None,demo,001,2025-01-28_22h20.20.760,forced_choice,2024.2.4,None,2025-01-28 22h20.25.442427 -0500
0.1,-1,0.1,207,15,12,left,0.8622467909008265,None,12,15,207,12,231.83342999999877,,,,231.82113349996507,232.41643729095813,233.28512620797846,left,0.8622467909008265,None,demo,001,2025-01-28_22h20.20.760,forced_choice,2024.2.4,None,2025-01-28 22h20.25.442427 -0500
1e-05,1,0.1,208,0,13,left,0.6426917070057243,None,13,0,208,0,233.2932241249364,,,,233.2871045829961,233.88302333292086,234.53473945788573,left,0.6426917070057243,None,demo,001,2025-01-28_22h20.20.760,forced_choice,2024.2.4,None,2025-01-28 22h20.25.442427 -0500
1,-1,0.1,210,2,13,left,0.34211287403013557,None,13,2,210,15,235.47620016592555,,,,235.47029483295046,236.06545174994972,236.41904587496538,left,0.34211287403013557,None,demo,001,2025-01-28_22h20.20.760,forced_choice,2024.2.4,None,2025-01-28 22h20.25.442427 -0500
0.1,1,0.1,211,3,13,right,0.17405062401667237,None,13,3,211,6,236.42758029093966,,,,236.4211686248891,237.01646670792252,237.2022098749876,right,0.17405062401667237,None,demo,001,2025-01-28_22h20.20.760,forced_choice,2024.2.4,None,2025-01-28 22h20.25.442427 -0500
0.1,1,0.1,212,4,13,right,0.18689741601701826,None,13,4,212,4,237.2094301659381,,,,237.20423941593617,237.8015852079261,238.00161270797253,right,0.18689741601701826,None,demo,001,2025-01-28_22h20.20.760,forced_choice,2024.2.4,None,2025-01-28 22h20.25.442427 -0500
0.0001,1,0.1,213,5,13,right,0.30369599896948785,None,13,5,213,1,238.00954154098872,,,,238.00361187499948,238.59977491595782,238.9060219998937,right,0.30369599896948785,None,demo,001,2025-01-28_22h20.20.760,forced_choice,2024.2.4,None,2025-01-28 22h20.25.442427 -0500
1,1,0.1,214,6,13,right,0.7139356249244884,None,13,6,214,7,238.9160744579276,,,,238.90812470798846,239.50452970794868,240.22299562499393,right,0.7139356249244884,None,demo,001,2025-01-28_22h20.20.760,forced_choice,2024.2.4,None,2025-01-28 22h20.25.442427 -0500
1e-05,-1,0.1,215,7,13,left,0.9055355819873512,None,13,7,215,8,240.23270937497728,,,,240.22507466597017,240.8209507499123,241.7356541249901,left,0.9055355819873512,None,demo,001,2025-01-28_22h20.20.760,forced_choice,2024.2.4,None,2025-01-28 22h20.25.442427 -0500
0.001,1,0.1,216,8,13,left,0.640334916,None,13,8,216,2,241.7430153329624,,,,241.73794966598507,242.33306233293843,242.98421854095068,left,0.640334916,None,demo,001,2025-01-28_22h20.20.760,forced_choice,2024.2.4,None,2025-01-28 22h20.25.442427 -0500
0.0001,-1,0.1,217,9,13,right,0.5633326239185408,None,13,9,217,9,242.9894837079337,,,,242.9854884579545,243.58308824989945,244.1514690829208,right,0.5633326239185408,None,demo,001,2025-01-28_22h20.20.760,forced_choice,2024.2.4,None,2025-01-28 22h20.25.442427 -0500
0.01,1,0.1,218,10,13,right,0.908712208,None,13,10,218,3,244.15924254094716,,,,244.1535535409348,244.74970499996562,245.66816074994858,right,0.908712208,None,demo,001,2025-01-28_22h20.20.760,forced_choice,2024.2.4,None,2025-01-28 22h20.25.442427 -0500
0.1,-1,0.1,220,12,13,left,0.5462784580886364,None,13,12,220,12,246.79225908289663,,,,246.78716587496456,247.3830483329948,247.93568658293225,left,0.5462784580886364,None,demo,001,2025-01-28_22h20.20.760,forced_choice,2024.2.4,None,2025-01-28 22h20.25.442427 -0500
0.01,-1,0.1,221,13,13,left,1.243346165982075,None,13,13,221,11,247.94375199999195,,,,247.93778237490915,248.53304754092824,249.7855325829005,left,1.243346165982075,None,demo,001,2025-01-28_22h20.20.760,forced_choice,2024.2.4,None,2025-01-28 22h20.25.442427 -0500
0.1,-1,0.1,222,14,13,left,0.48254324903246015,None,13,14,222,14,249.79326024989132,,,,249.78754662489519,250.38276974996552,250.86891129089054,left,0.48254324903246015,None,demo,001,2025-01-28_22h20.20.760,forced_choice,2024.2.4,None,2025-01-28 22h20.25.442427 -0500
0.001,-1,0.1,223,15,13,left,0.7368692490272224,None,13,15,223,10,250.87735154095571,,,,250.87074837496039,251.46629691589624,252.20549345796462,left,0.7368692490272224,None,demo,001,2025-01-28_22h20.20.760,forced_choice,2024.2.4,None,2025-01-28 22h20.25.442427 -0500
1,-1,0.1,224,0,14,left,0.37342999898828566,None,14,0,224,15,252.2170562079409,,,,252.20768212492112,252.80415508290753,253.1848839999875,left,0.37342999898828566,None,demo,001,2025-01-28_22h20.20.760,forced_choice,2024.2.4,None,2025-01-28 22h20.25.442427 -0500
1e-05,1,0.1,226,2,14,right,1.271558041102253,None,14,2,226,0,254.14937574998476,,,,254.13455704099033,254.7216838329332,256.0016271659406,right,1.271558041102253,None,demo,001,2025-01-28_22h20.20.760,forced_choice,2024.2.4,None,2025-01-28 22h20.25.442427 -0500
0.1,1,0.1,227,3,14,right,1.236108958022669,None,14,3,227,6,256.0096594999777,,,,256.00388416589703,256.5999278749805,257.8393342499621,right,1.236108958022669,None,demo,001,2025-01-28_22h20.20.760,forced_choice,2024.2.4,None,2025-01-28 22h20.25.442427 -0500
0.0001,-1,0.1,228,4,14,left,2.109871165943332,None,14,4,228,9,257.84944020793773,,,,257.84127174993046,258.43730816594325,260.5522174159996,left,2.109871165943332,None,demo,001,2025-01-28_22h20.20.760,forced_choice,2024.2.4,None,2025-01-28 22h20.25.442427 -0500
0.001,1,0.1,229,5,14,left,0.7962439160328358,None,14,5,229,2,260.5598131659208,,,,260.5544507079758,261.1498627909459,261.9520178749226,left,0.7962439160328358,None,demo,001,2025-01-28_22h20.20.760,forced_choice,2024.2.4,None,2025-01-28 22h20.25.442427 -0500
0.01,1,0.1,230,6,14,left,0.5091886250302196,None,14,6,230,3,261.95839,,,,261.9539086659206,262.54979883297347,263.0680097079603,left,0.5091886250302196,None,demo,001,2025-01-28_22h20.20.760,forced_choice,2024.2.4,None,2025-01-28 22h20.25.442427 -0500
0.1,-1,0.1,232,8,14,left,1.5194056240143254,None,14,8,232,12,265.2272115829401,,,,265.22087812493555,265.8164077079855,267.3390964999562,left,1.5194056240143254,None,demo,001,2025-01-28_22h20.20.760,forced_choice,2024.2.4,None,2025-01-28 22h20.25.442427 -0500
1,1,0.1,233,9,14,right,0.7516251659253612,None,14,9,233,7,267.34939429094084,,,,267.3408159579849,267.9501462909393,268.70532474992797,right,0.7516251659253612,None,demo,001,2025-01-28_22h20.20.760,forced_choice,2024.2.4,None,2025-01-28 22h20.25.442427 -0500
0.1,1,0.1,234,10,14,right,0.3199987909756601,None,14,10,234,4,268.71605216595344,,,,268.70741908298805,269.2997617078945,269.62317620799877,right,0.3199987909756601,None,demo,001,2025-01-28_22h20.20.760,forced_choice,2024.2.4,None,2025-01-28 22h20.25.442427 -0500
0.1,-1,0.1,235,11,14,left,1.3314202489564195,None,14,11,235,14,269.63266658294015,,,,269.62592258292716,270.22135212493595,271.5675672,left,1.3314202489564195,None,demo,001,2025-01-28_22h20.20.760,forced_choice,2024.2.4,None,2025-01-28 22h20.25.442427 -0500
0.01,-1,0.1,236,12,14,right,0.7582218740135431,None,14,12,236,11,271.5734412499005,,,,271.56921958294697,272.1665019999491,272.93551245797426,right,0.7582218740135431,None,demo,001,2025-01-28_22h20.20.760,forced_choice,2024.2.4,None,2025-01-28 22h20.25.442427 -0500
0.001,-1,0.1,237,13,14,left,0.22883333207573742,None,14,13,237,10,272.94975291599985,,,,272.9365147909848,273.5500076249009,273.7849753749324,left,0.22883333207573742,None,demo,001,2025-01-28_22h20.20.760,forced_choice,2024.2.4,None,2025-01-28 22h20.25.442427 -0500
0.0001,1,0.1,238,14,14,left,0.5536007490009069,None,14,14,238,1,273.7921656658873,,,,273.7869911249727,274.4000124159502,274.9552111,left,0.5536007490009069,None,demo,001,2025-01-28_22h20.20.760,forced_choice,2024.2.4,None,2025-01-28 22h20.25.442427 -0500
1e-05,-1,0.1,239,15,14,right,0.5105454160366207,None,14,15,239,8,274.9668020409299,,,,274.9571452079108,275.5541359579656,276.0688054159982,right,0.5105454160366207,None,demo,001,2025-01-28_22h20.20.760,forced_choice,2024.2.4,None,2025-01-28 22h20.25.442427 -0500