contrast,location,size,thisN,thisTrialN,thisRepN,response.keys,response.rt,response.duration,trials.thisRepN,trials.thisTrialN,trials.thisN,trials.thisIndex,thisRow.t,notes,begin_experiment.started,begin_experiment.stopped,trial.started,response.started,trial.stopped,trials.response.keys,trials.response.rt,trials.response.duration,participant,session,date,expName,psychopyVersion,frameRate,expStart,
,,,,,,,,,,,,,,,0.0066784999798983335,54.971873416914605,,,,,,,demo2,001,2025-01-26_16h34.42.314,contrast_sensitivity,2024.2.4,None,2025-01-26 16h34.49.717769 -0500,
0.0001,-1,0.025,0,0,0,right,3.1373142920201644,None,0,0,0,55,54.98534829192795,,,,54.97898808296304,55.572584499954246,58.71726833295543,right,3.1373142920201644,None,demo2,001,2025-01-26_16h34.42.314,contrast_sensitivity,2024.2.4,None,2025-01-26 16h34.49.717769 -0500,
1e-08,1,0.4,1,1,0,left,0.4426732499850914,None,0,1,1,0,58.72628087492194,,,,58.71920449996833,59.31527616688982,59.767162291915156,left,0.4426732499850914,None,demo2,001,2025-01-26_16h34.42.314,contrast_sensitivity,2024.2.4,None,2025-01-26 16h34.49.717769 -0500,
0.01,-1,0.4,2,2,0,left,0.3153199589578435,None,0,2,2,8,59.7755182919791,,,,59.769085332984105,60.36552374996245,60.68422904191539,left,0.3153199589578435,None,demo2,001,2025-01-26_16h34.42.314,contrast_sensitivity,2024.2.4,None,2025-01-26 16h34.49.717769 -0500,
0.05,-1,0.05,3,3,0,right,0.4098050419706851,None,0,3,3,45,60.692786791943945,,,,60.686459166929126,61.28211779193953,61.70056508295238,right,0.4098050419706851,None,demo2,001,2025-01-26_16h34.42.314,contrast_sensitivity,2024.2.4,None,2025-01-26 16h34.49.717769 -0500,
0.0001,-1,0.05,4,4,0,left,0.10295412491541356,None,0,4,4,43,61.70905583293643,,,,61.70274458290078,62.298866457887925,62.405099541996606,left,0.10295412491541356,None,demo2,001,2025-01-26_16h34.42.314,contrast_sensitivity,2024.2.4,None,2025-01-26 16h34.49.717769 -0500,
1.0,-1,0.1,5,5,0,left,0.4472410830203444,None,0,5,5,35,62.41418491699733,,,,62.40704574994743,63.00354020798113,63.45449599996209,left,0.4472410830203444,None,demo2,001,2025-01-26_16h34.42.314,contrast_sensitivity,2024.2.4,None,2025-01-26 16h34.49.717769 -0500,
0.01,1,0.1,6,6,0,right,0.27699170797131956,None,0,6,6,26,63.46523458289448,,,,63.456431957893074,64.0657776669832,64.3517760419054,right,0.27699170797131956,None,demo2,001,2025-01-26_16h34.42.314,contrast_sensitivity,2024.2.4,None,2025-01-26 16h34.49.717769 -0500,
1.0,1,0.2,7,7,0,right,0.13575712498277426,None,0,7,7,17,64.36546566698235,,,,64.35371179191861,64.94893629197031,65.08720979199279,right,0.13575712498277426,None,demo2,001,2025-01-26_16h34.42.314,contrast_sensitivity,2024.2.4,None,2025-01-26 16h34.49.717769 -0500,
0.1,1,0.05,8,8,0,right,0.23480391700286418,None,0,8,8,40,65.09840445790906,,,,65.08910449990071,65.68186987494119,65.92160070792306,right,0.23480391700286418,None,demo2,001,2025-01-26_16h34.42.314,contrast_sensitivity,2024.2.4,None,2025-01-26 16h34.49.717769 -0500,
0.05,-1,0.4,9,9,0,left,11.831607874948531,None,0,9,9,9,65.93168524990324,,,,65.92345841694623,66.52022095792927,78.35368587495759,left,11.831607874948531,None,demo2,001,2025-01-26_16h34.42.314,contrast_sensitivity,2024.2.4,None,2025-01-26 16h34.49.717769 -0500,
1.0,-1,0.05,10,10,0,left,0.3792082089930773,None,0,10,10,47,78.36513883294538,,,,78.35558087495156,78.9535942079965,79.33581091696396,left,0.3792082089930773,None,demo2,001,2025-01-26_16h34.42.314,contrast_sensitivity,2024.2.4,None,2025-01-26 16h34.49.717769 -0500,
1e-08,1,0.2,11,11,0,left,0.39045091706793755,None,0,11,11,12,79.3479982499266,,,,79.33694324991666,79.93230262491852,80.33494933298789,left,0.39045091706793755,None,demo2,001,2025-01-26_16h34.42.314,contrast_sensitivity,2024.2.4,None,2025-01-26 16h34.49.717769 -0500,
0.05,1,0.2,12,12,0,right,0.2585752079030499,None,0,12,12,15,80.34360291692428,,,,80.33695420797449,80.93215541692916,81.20020429196302,right,0.2585752079030499,None,demo2,001,2025-01-26_16h34.42.314,contrast_sensitivity,2024.2.4,None,2025-01-26 16h34.49.717769 -0500,
0.1,1,0.1,13,13,0,right,0.25020912499167025,None,0,13,13,28,81.20868270797655,,,,81.20209337491542,81.79850545793306,82.0510690829251,right,0.25020912499167025,None,demo2,001,2025-01-26_16h34.42.314,contrast_sensitivity,2024.2.4,None,2025-01-26 16h34.49.717769 -0500,
0.05,-1,0.2,14,14,0,left,0.26026208396069705,None,0,14,14,21,82.05980941699818,,,,82.05292262497824,82.64860870793927,82.91738608293235,left,0.26026208396069705,None,demo2,001,2025-01-26_16h34.42.314,contrast_sensitivity,2024.2.4,None,2025-01-26 16h34.49.717769 -0500,
1e-08,-1,0.4,15,15,0,left,0.41650858393404633,None,0,15,15,6,82.92581499996595,,,,82.91929554194212,83.51520895794965,83.93490062491037,left,0.41650858393404633,None,demo2,001,2025-01-26_16h34.42.314,contrast_sensitivity,2024.2.4,None,2025-01-26 16h34.49.717769 -0500,
0.1,-1,0.025,16,16,0,left,0.5177407080773264,None,0,16,16,58,83.9436624168884,,,,83.93670695798937,84.53188833291642,85.05463837494608,left,0.5177407080773264,None,demo2,001,2025-01-26_16h34.42.314,contrast_sensitivity,2024.2.4,None,2025-01-26 16h34.49.717769 -0500,
1e-08,1,0.05,17,17,0,left,1.024123250041157,None,0,17,17,36,85.06532133289147,,,,85.05678370792884,85.65169845789205,86.68432324996684,left,1.024123250041157,None,demo2,001,2025-01-26_16h34.42.314,contrast_sensitivity,2024.2.4,None,2025-01-26 16h34.49.717769 -0500,
0.0001,1,0.05,18,18,0,left,0.7726646249648184,None,0,18,18,37,86.69351649994496,,,,86.68651354196481,87.28191562497523,88.06722937489394,left,0.7726646249648184,None,demo2,001,2025-01-26_16h34.42.314,contrast_sensitivity,2024.2.4,None,2025-01-26 16h34.49.717769 -0500,
0.05,-1,0.025,19,19,0,right,0.48139329196419567,None,0,19,19,57,88.07593866693787,,,,88.06918383296579,88.66519616695587,89.15080124989618,right,0.48139329196419567,None,demo2,001,2025-01-26_16h34.42.314,contrast_sensitivity,2024.2.4,None,2025-01-26 16h34.49.717769 -0500,
1.0,-1,0.2,20,20,0,left,0.3611068750033155,None,0,20,20,23,89.15924558299594,,,,89.15265529195312,89.7486050829757,90.11798070790246,left,0.3611068750033155,None,demo2,001,2025-01-26_16h34.42.314,contrast_sensitivity,2024.2.4,None,2025-01-26 16h34.49.717769 -0500,
0.1,1,0.4,21,21,0,right,0.3452071670908481,None,0,21,21,4,90.12613091699313,,,,90.1200612919638,90.71546783298254,91.06737349997275,right,0.3452071670908481,None,demo2,001,2025-01-26_16h34.42.314,contrast_sensitivity,2024.2.4,None,2025-01-26 16h34.49.717769 -0500,
0.01,-1,0.2,22,22,0,left,0.2992286660009995,None,0,22,22,20,91.07535562489647,,,,91.06928049994167,91.66530079196673,91.96770916692913,left,0.2992286660009995,None,demo2,001,2025-01-26_16h34.42.314,contrast_sensitivity,2024.2.4,None,2025-01-26 16h34.49.717769 -0500,
0.05,1,0.1,23,23,0,right,0.300132125033997,None,0,23,23,27,91.97622429195326,,,,91.96961254195776,92.56534283293877,92.868423582986,right,0.300132125033997,None,demo2,001,2025-01-26_16h34.42.314,contrast_sensitivity,2024.2.4,None,2025-01-26 16h34.49.717769 -0500,
0.01,1,0.025,24,24,0,left,0.11519408295862377,None,0,24,24,50,92.87707833293825,,,,92.8704884579638,93.46528224996291,93.58403562498279,left,0.11519408295862377,None,demo2,001,2025-01-26_16h34.42.314,contrast_sensitivity,2024.2.4,None,2025-01-26 16h34.49.717769 -0500,
1.0,-1,0.025,25,25,0,left,0.2919770829612389,None,0,25,25,59,93.59162970795296,,,,93.58616287494078,94.18210095795803,94.48399987490848,left,0.2919770829612389,None,demo2,001,2025-01-26_16h34.42.314,contrast_sensitivity,2024.2.4,None,2025-01-26 16h34.49.717769 -0500,
1.0,1,0.4,26,26,0,right,0.2151267499430105,None,0,26,26,5,94.49219687492587,,,,94.48587095795665,95.08229070797097,95.30087033298332,right,0.2151267499430105,None,demo2,001,2025-01-26_16h34.42.314,contrast_sensitivity,2024.2.4,None,2025-01-26 16h34.49.717769 -0500,
0.05,-1,0.1,27,27,0,left,0.2166567500680685,None,0,27,27,33,95.30934237490874,,,,95.30283704190515,95.8987180829281,96.11767929198686,left,0.2166567500680685,None,demo2,001,2025-01-26_16h34.42.314,contrast_sensitivity,2024.2.4,None,2025-01-26 16h34.49.717769 -0500,
0.1,-1,0.2,28,28,0,left,0.17814900004304945,None,0,28,28,22,96.12632258294616,,,,96.11955620790832,96.71525858296081,96.90149570791982,left,0.17814900004304945,None,demo2,001,2025-01-26_16h34.42.314,contrast_sensitivity,2024.2.4,None,2025-01-26 16h34.49.717769 -0500,
1.0,-1,0.4,29,29,0,left,0.3177129999967292,None,0,29,29,11,96.91543016699143,,,,96.90356941695791,97.49863216700032,97.8349068328971,left,0.3177129999967292,None,demo2,001,2025-01-26_16h34.42.314,contrast_sensitivity,2024.2.4,None,2025-01-26 16h34.49.717769 -0500,
1e-08,1,0.025,30,30,0,right,0.4894666669424623,None,0,30,30,48,97.84888329193927,,,,97.83685599989258,98.43190570792649,98.93414183298592,right,0.4894666669424623,None,demo2,001,2025-01-26_16h34.42.314,contrast_sensitivity,2024.2.4,None,2025-01-26 16h34.49.717769 -0500,
0.0001,1,0.1,31,31,0,left,0.6013697501039132,None,0,31,31,25,98.94284299993888,,,,98.93617820797954,99.5319162919186,100.1377925829729,left,0.6013697501039132,None,demo2,001,2025-01-26_16h34.42.314,contrast_sensitivity,2024.2.4,None,2025-01-26 16h34.49.717769 -0500,
0.0001,1,0.2,32,32,0,left,0.5351831250591204,None,0,32,32,13,100.14877124992199,,,,100.13978612492792,100.73711929190904,101.28416449995711,left,0.5351831250591204,None,demo2,001,2025-01-26_16h34.42.314,contrast_sensitivity,2024.2.4,None,2025-01-26 16h34.49.717769 -0500,
0.0001,1,0.025,33,33,0,left,0.7611607499420643,None,0,33,33,49,101.2928048329195,,,,101.2861558329314,101.88209533295594,102.65065541688818,left,0.7611607499420643,None,demo2,001,2025-01-26_16h34.42.314,contrast_sensitivity,2024.2.4,None,2025-01-26 16h34.49.717769 -0500,
1.0,1,0.1,34,34,0,right,0.3955632499419153,None,0,34,34,29,102.65950599999633,,,,102.65270124992821,103.248814499937,103.65085504192393,right,0.3955632499419153,None,demo2,001,2025-01-26_16h34.42.314,contrast_sensitivity,2024.2.4,None,2025-01-26 16h34.49.717769 -0500,
0.1,1,0.2,35,35,0,right,0.193546750000678,None,0,35,35,16,103.65908241691068,,,,103.65261233295314,104.24866274988744,104.45050549996085,right,0.193546750000678,None,demo2,001,2025-01-26_16h34.42.314,contrast_sensitivity,2024.2.4,None,2025-01-26 16h34.49.717769 -0500,
0.0001,-1,0.2,36,36,0,left,0.39684304199181497,None,0,36,36,19,104.45899870793801,,,,104.45246729196515,105.0485268329503,105.45032670791261,left,0.39684304199181497,None,demo2,001,2025-01-26_16h34.42.314,contrast_sensitivity,2024.2.4,None,2025-01-26 16h34.49.717769 -0500,
0.0001,-1,0.1,37,37,0,left,0.7212469999212772,None,0,37,37,31,105.45928966696374,,,,105.45243220799603,106.04885599995032,106.78460974991322,left,0.7212469999212772,None,demo2,001,2025-01-26_16h34.42.314,contrast_sensitivity,2024.2.4,None,2025-01-26 16h34.49.717769 -0500,
1e-08,1,0.1,38,38,0,right,0.4802752499235794,None,0,38,38,24,106.79289762489498,,,,106.78643337497488,107.38189783296548,107.86832666699775,right,0.4802752499235794,None,demo2,001,2025-01-26_16h34.42.314,contrast_sensitivity,2024.2.4,None,2025-01-26 16h34.49.717769 -0500,
0.1,-1,0.05,39,39,0,left,0.3068500829394907,None,0,39,39,46,107.87684204196557,,,,107.87019679194782,108.46524570789188,108.78407608298585,left,0.3068500829394907,None,demo2,001,2025-01-26_16h34.42.314,contrast_sensitivity,2024.2.4,None,2025-01-26 16h34.49.717769 -0500,
0.1,-1,0.4,40,40,0,left,0.3539173330646008,None,0,40,40,10,108.79280087491497,,,,108.78606641700026,109.38210816693027,109.74913883290719,left,0.3539173330646008,None,demo2,001,2025-01-26_16h34.42.314,contrast_sensitivity,2024.2.4,None,2025-01-26 16h34.49.717769 -0500,
0.05,1,0.4,41,41,0,right,0.2639474580064416,None,0,41,41,3,109.75498999992851,,,,109.75053158297669,110.33715895796195,110.60448954196181,right,0.2639474580064416,None,demo2,001,2025-01-26_16h34.42.314,contrast_sensitivity,2024.2.4,None,2025-01-26 16h34.49.717769 -0500,
1.0,1,0.05,42,42,0,right,0.22850529197603464,None,0,42,42,41,110.61516162496991,,,,110.60644012491684,111.20322812499944,111.43426354194526,right,0.22850529197603464,None,demo2,001,2025-01-26_16h34.42.314,contrast_sensitivity,2024.2.4,None,2025-01-26 16h34.49.717769 -0500,
0.05,1,0.05,43,43,0,right,0.2801314160460606,None,0,43,43,39,111.44331645790953,,,,111.43657695793081,112.03192504192702,112.31822783290409,right,0.2801314160460606,None,demo2,001,2025-01-26_16h34.42.314,contrast_sensitivity,2024.2.4,None,2025-01-26 16h34.49.717769 -0500,
0.01,1,0.05,44,44,0,right,0.31969595805276185,None,0,44,44,38,112.3321488329675,,,,112.32009662489872,112.9153208329808,113.23792620794848,right,0.31969595805276185,None,demo2,001,2025-01-26_16h34.42.314,contrast_sensitivity,2024.2.4,None,2025-01-26 16h34.49.717769 -0500,
1.0,1,0.025,45,45,0,right,0.16946620808448642,None,0,45,45,53,113.24871199997142,,,,113.23991979192942,113.83650941692758,114.01647991698701,right,0.16946620808448642,None,demo2,001,2025-01-26_16h34.42.314,contrast_sensitivity,2024.2.4,None,2025-01-26 16h34.49.717769 -0500,
0.01,-1,0.05,46,46,0,right,0.7347233339678496,None,0,46,46,44,114.02219574991614,,,,114.0180170419626,114.61520483298227,115.35484220797662,right,0.7347233339678496,None,demo2,001,2025-01-26_16h34.42.314,contrast_sensitivity,2024.2.4,None,2025-01-26 16h34.49.717769 -0500,
0.1,-1,0.1,47,47,0,left,0.2832296669948846,None,0,47,47,34,115.36498491698876,,,,115.3568291249685,115.95368920790497,116.25133874989115,left,0.2832296669948846,None,demo2,001,2025-01-26_16h34.42.314,contrast_sensitivity,2024.2.4,None,2025-01-26 16h34.49.717769 -0500,
0.01,-1,0.1,48,48,0,left,0.3963509160093963,None,0,48,48,32,116.2599833329441,,,,116.25320012494922,116.84864158299752,117.2507134169573,left,0.3963509160093963,None,demo2,001,2025-01-26_16h34.42.314,contrast_sensitivity,2024.2.4,None,2025-01-26 16h34.49.717769 -0500,
0.01,-1,0.025,49,49,0,right,0.7792438329197466,None,0,49,49,56,117.2596304579638,,,,117.25265683291946,117.84872912499122,118.63361470797099,right,0.7792438329197466,None,demo2,001,2025-01-26_16h34.42.314,contrast_sensitivity,2024.2.4,None,2025-01-26 16h34.49.717769 -0500,
1e-08,-1,0.2,50,50,0,left,0.3818065830273554,None,0,50,50,18,118.64140862494241,,,,118.6355627499288,119.23205429199152,119.61749479197897,left,0.3818065830273554,None,demo2,001,2025-01-26_16h34.42.314,contrast_sensitivity,2024.2.4,None,2025-01-26 16h34.49.717769 -0500,
0.05,1,0.025,51,51,0,left,0.3925814169924706,None,0,51,51,51,119.62705266696867,,,,119.61951783299446,120.21529616694897,120.61752424994484,left,0.3925814169924706,None,demo2,001,2025-01-26_16h34.42.314,contrast_sensitivity,2024.2.4,None,2025-01-26 16h34.49.717769 -0500,
1e-08,-1,0.05,52,52,0,left,0.33009454200509936,None,0,52,52,42,120.62607962498441,,,,120.61974083294626,121.21490604197606,121.55096816690639,left,0.33009454200509936,None,demo2,001,2025-01-26_16h34.42.314,contrast_sensitivity,2024.2.4,None,2025-01-26 16h34.49.717769 -0500,
0.0001,-1,0.4,53,53,0,left,0.2942628749879077,None,0,53,53,7,121.5593744169455,,,,121.55298124998808,122.14865995792206,122.45027554198168,left,0.2942628749879077,None,demo2,001,2025-01-26_16h34.42.314,contrast_sensitivity,2024.2.4,None,2025-01-26 16h34.49.717769 -0500,
0.0001,1,0.4,54,54,0,right,0.31008933298289776,None,0,54,54,1,122.45893924997654,,,,122.4522843749728,123.0486656249268,123.36748054192867,right,0.31008933298289776,None,demo2,001,2025-01-26_16h34.42.314,contrast_sensitivity,2024.2.4,None,2025-01-26 16h34.49.717769 -0500,
1e-08,-1,0.1,55,55,0,left,0.3080837919842452,None,0,55,55,30,123.37571279192343,,,,123.3693872919539,123.98275970795657,124.30083429196384,left,0.3080837919842452,None,demo2,001,2025-01-26_16h34.42.314,contrast_sensitivity,2024.2.4,None,2025-01-26 16h34.49.717769 -0500,
0.01,1,0.2,56,56,0,right,0.7620715840021148,None,0,56,56,14,124.30926104192622,,,,124.30286208295729,124.89869220799301,125.66697887494229,right,0.7620715840021148,None,demo2,001,2025-01-26_16h34.42.314,contrast_sensitivity,2024.2.4,None,2025-01-26 16h34.49.717769 -0500,
0.1,1,0.025,57,57,0,right,0.6107372499536723,None,0,57,57,52,125.67577308299951,,,,125.66900670796167,126.26512995793018,126.88409570790827,right,0.6107372499536723,None,demo2,001,2025-01-26_16h34.42.314,contrast_sensitivity,2024.2.4,None,2025-01-26 16h34.49.717769 -0500,
1e-08,-1,0.025,58,58,0,right,0.9627784589538351,None,0,58,58,54,126.89274424989708,,,,126.88604479189962,127.48189683293458,128.4504891668912,right,0.9627784589538351,None,demo2,001,2025-01-26_16h34.42.314,contrast_sensitivity,2024.2.4,None,2025-01-26 16h34.49.717769 -0500,
0.01,1,0.4,59,59,0,right,0.25789687503129244,None,0,59,59,2,128.45840729190968,,,,128.45228491700254,129.04875937500037,129.31712633289862,right,0.25789687503129244,None,demo2,001,2025-01-26_16h34.42.314,contrast_sensitivity,2024.2.4,None,2025-01-26 16h34.49.717769 -0500,
0.0001,1,0.025,60,0,1,right,0.25278229103423655,None,1,0,60,49,129.32535145792644,,,,129.31901512492914,129.9158356669359,130.18457895796746,right,0.25278229103423655,None,demo2,001,2025-01-26_16h34.42.314,contrast_sensitivity,2024.2.4,None,2025-01-26 16h34.49.717769 -0500,
1e-08,-1,0.1,61,1,1,left,0.4256662499392405,None,1,1,61,30,130.19950129196513,,,,130.18651149992365,130.7999937919667,131.23530474992003,left,0.4256662499392405,None,demo2,001,2025-01-26_16h34.42.314,contrast_sensitivity,2024.2.4,None,2025-01-26 16h34.49.717769 -0500,
0.05,-1,0.4,62,2,1,left,0.4275350420502946,None,1,2,62,9,131.2488171668956,,,,131.23726299998816,131.84893412492238,132.28281212493312,left,0.4275350420502946,None,demo2,001,2025-01-26_16h34.42.314,contrast_sensitivity,2024.2.4,None,2025-01-26 16h34.49.717769 -0500,
0.1,1,0.4,63,3,1,right,0.43825437501072884,None,1,3,63,4,132.2881043329835,,,,132.284116582945,132.88132499996573,133.33267241693102,right,0.43825437501072884,None,demo2,001,2025-01-26_16h34.42.314,contrast_sensitivity,2024.2.4,None,2025-01-26 16h34.49.717769 -0500,
0.0001,-1,0.1,64,4,1,right,0.346337917027995,None,1,4,64,31,133.33775941689964,,,,133.33396216691472,133.91989562497474,134.27090295800008,right,0.346337917027995,None,demo2,001,2025-01-26_16h34.42.314,contrast_sensitivity,2024.2.4,None,2025-01-26 16h34.49.717769 -0500,
1.0,1,0.025,65,5,1,right,0.2667378750629723,None,1,5,65,53,134.28189391689375,,,,134.27295995794702,134.86972608289216,135.1506898329826,right,0.2667378750629723,None,demo2,001,2025-01-26_16h34.42.314,contrast_sensitivity,2024.2.4,None,2025-01-26 16h34.49.717769 -0500,
1.0,-1,0.1,66,6,1,left,0.3481370419031009,None,1,6,66,35,135.15895512490533,,,,135.1528178328881,135.74833791691344,136.10076929198112,left,0.3481370419031009,None,demo2,001,2025-01-26_16h34.42.314,contrast_sensitivity,2024.2.4,None,2025-01-26 16h34.49.717769 -0500,
0.05,-1,0.2,67,7,1,left,0.4029078329913318,None,1,7,67,21,136.10946599999443,,,,136.1027368749492,136.69853270798922,137.10394270799588,left,0.4029078329913318,None,demo2,001,2025-01-26_16h34.42.314,contrast_sensitivity,2024.2.4,None,2025-01-26 16h34.49.717769 -0500,
0.01,1,0.2,68,8,1,right,0.4289129578974098,None,1,8,68,14,137.1150072918972,,,,137.1058975419728,137.6986457919702,138.13407216698397,right,0.4289129578974098,None,demo2,001,2025-01-26_16h34.42.314,contrast_sensitivity,2024.2.4,None,2025-01-26 16h34.49.717769 -0500,
0.0001,-1,0.05,69,9,1,right,0.5503922500647604,None,1,9,69,43,138.1427062919829,,,,138.13606162497308,138.73197024990804,139.28742341697216,right,0.5503922500647604,None,demo2,001,2025-01-26_16h34.42.314,contrast_sensitivity,2024.2.4,None,2025-01-26 16h34.49.717769 -0500,
0.01,1,0.1,70,10,1,left,0.5976902499096468,None,1,10,70,26,139.29835541697685,,,,139.28938379196916,139.88466195797082,140.48592949996237,left,0.5976902499096468,None,demo2,001,2025-01-26_16h34.42.314,contrast_sensitivity,2024.2.4,None,2025-01-26 16h34.49.717769 -0500,
0.05,1,0.05,71,11,1,right,0.42118366598151624,None,1,11,71,39,140.49758145795204,,,,140.48704108293168,141.08211791689973,141.51733470789623,right,0.42118366598151624,None,demo2,001,2025-01-26_16h34.42.314,contrast_sensitivity,2024.2.4,None,2025-01-26 16h34.49.717769 -0500,
0.1,-1,0.1,72,12,1,left,0.2980707079404965,None,1,12,72,34,141.52599854196887,,,,141.51928537490312,142.11526808294002,142.41752849996556,left,0.2980707079404965,None,demo2,001,2025-01-26_16h34.42.314,contrast_sensitivity,2024.2.4,None,2025-01-26 16h34.49.717769 -0500,
1e-08,-1,0.05,73,13,1,left,0.37500441691372544,None,1,13,73,42,142.42623091698624,,,,142.41956837498583,143.01528799999505,143.4005251249764,left,0.37500441691372544,None,demo2,001,2025-01-26_16h34.42.314,contrast_sensitivity,2024.2.4,None,2025-01-26 16h34.49.717769 -0500,
0.05,1,0.1,74,14,1,right,0.2808983330614865,None,1,14,74,27,143.40893408295233,,,,143.40263970789965,143.9985530419508,144.28421762492508,right,0.2808983330614865,None,demo2,001,2025-01-26_16h34.42.314,contrast_sensitivity,2024.2.4,None,2025-01-26 16h34.49.717769 -0500,
0.01,1,0.4,75,15,1,right,0.17127433302812278,None,1,15,75,2,144.29273649991956,,,,144.2862452919362,144.88099937490188,145.06545562495012,right,0.17127433302812278,None,demo2,001,2025-01-26_16h34.42.314,contrast_sensitivity,2024.2.4,None,2025-01-26 16h34.49.717769 -0500,
0.1,1,0.05,76,16,1,right,0.2650406670290977,None,1,16,76,40,145.0700501248939,,,,145.06651066697668,145.66418012499344,145.93219320790377,right,0.2650406670290977,None,demo2,001,2025-01-26_16h34.42.314,contrast_sensitivity,2024.2.4,None,2025-01-26 16h34.49.717769 -0500,
0.1,-1,0.025,77,17,1,left,0.3573856250150129,None,1,17,77,58,145.9370163748972,,,,145.9332933749538,146.53084320796188,146.90048241696786,left,0.3573856250150129,None,demo2,001,2025-01-26_16h34.42.314,contrast_sensitivity,2024.2.4,None,2025-01-26 16h34.49.717769 -0500,
0.01,-1,0.025,78,18,1,left,0.27162250003311783,None,1,18,78,56,146.90792274998967,,,,146.90217404195573,147.4975629169494,147.78362845792435,left,0.27162250003311783,None,demo2,001,2025-01-26_16h34.42.314,contrast_sensitivity,2024.2.4,None,2025-01-26 16h34.49.717769 -0500,
0.05,1,0.2,79,19,1,right,0.2022695419145748,None,1,19,79,15,147.78993299999274,,,,147.78528174990788,148.38089512498118,148.58564616693184,right,0.2022695419145748,None,demo2,001,2025-01-26_16h34.42.314,contrast_sensitivity,2024.2.4,None,2025-01-26 16h34.49.717769 -0500,
1.0,-1,0.2,80,20,1,left,0.15711008303333074,None,1,20,80,23,148.59749962494243,,,,148.58680312498473,149.1838155000005,149.3490567499539,left,0.15711008303333074,None,demo2,001,2025-01-26_16h34.42.314,contrast_sensitivity,2024.2.4,None,2025-01-26 16h34.49.717769 -0500,
0.1,-1,0.2,81,21,1,left,0.23449920897837728,None,1,21,81,22,149.35499487491325,,,,149.35082474991214,149.94762774999253,150.18539654195774,left,0.23449920897837728,None,demo2,001,2025-01-26_16h34.42.314,contrast_sensitivity,2024.2.4,None,2025-01-26 16h34.49.717769 -0500,
1.0,1,0.05,82,22,1,right,0.18876491708215326,None,1,22,82,41,150.19770358293317,,,,150.18653587496374,150.78469079197384,150.98366099991836,right,0.18876491708215326,None,demo2,001,2025-01-26_16h34.42.314,contrast_sensitivity,2024.2.4,None,2025-01-26 16h34.49.717769 -0500,
1.0,-1,0.4,83,23,1,left,0.2280389160150662,None,1,23,83,11,150.98921933292877,,,,150.98478137492202,151.5822745419573,151.81740812491626,left,0.2280389160150662,None,demo2,001,2025-01-26_16h34.42.314,contrast_sensitivity,2024.2.4,None,2025-01-26 16h34.49.717769 -0500,
1e-08,1,0.1,84,24,1,left,0.3836922919144854,None,1,24,84,24,151.82580854196567,,,,151.8193262919085,152.41534295794554,152.80402979196515,left,0.3836922919144854,None,demo2,001,2025-01-26_16h34.42.314,contrast_sensitivity,2024.2.4,None,2025-01-26 16h34.49.717769 -0500,
1.0,1,0.2,85,25,1,right,0.14460574998520315,None,1,25,85,17,152.81501141691115,,,,152.80582645791583,153.40350904199295,153.55107795796357,right,0.14460574998520315,None,demo2,001,2025-01-26_16h34.42.314,contrast_sensitivity,2024.2.4,None,2025-01-26 16h34.49.717769 -0500,
0.05,-1,0.025,86,26,1,left,1.0352375829825178,None,1,26,86,57,153.55890616693068,,,,153.55333070794586,154.14774616691284,155.18731708289124,left,1.0352375829825178,None,demo2,001,2025-01-26_16h34.42.314,contrast_sensitivity,2024.2.4,None,2025-01-26 16h34.49.717769 -0500,
1e-08,1,0.4,87,27,1,right,0.5226711250143126,None,1,27,87,0,155.19767691695597,,,,155.18855733296368,155.79827562498394,156.33416758291423,right,0.5226711250143126,None,demo2,001,2025-01-26_16h34.42.314,contrast_sensitivity,2024.2.4,None,2025-01-26 16h34.49.717769 -0500,
0.1,1,0.025,88,28,1,right,0.3540127919986844,None,1,28,88,52,156.34906929195859,,,,156.33556283300277,156.9309068749426,157.29931170796044,right,0.3540127919986844,None,demo2,001,2025-01-26_16h34.42.314,contrast_sensitivity,2024.2.4,None,2025-01-26 16h34.49.717769 -0500,
1e-08,-1,0.2,89,29,1,right,0.2726165410131216,None,1,29,89,18,157.30453099997249,,,,157.30064787494484,157.89760712499265,158.18342320795637,right,0.2726165410131216,None,demo2,001,2025-01-26_16h34.42.314,contrast_sensitivity,2024.2.4,None,2025-01-26 16h34.49.717769 -0500,
1.0,1,0.4,90,30,1,right,1.3609800839331,None,1,30,90,5,158.18885395792313,,,,158.1846892919857,158.78086224989966,160.14965562499128,right,1.3609800839331,None,demo2,001,2025-01-26_16h34.42.314,contrast_sensitivity,2024.2.4,None,2025-01-26 16h34.49.717769 -0500,
0.05,1,0.4,91,31,1,right,0.4189280830323696,None,1,31,91,3,160.15582483296748,,,,160.15106120798737,160.74791287491098,161.18317216692958,right,0.4189280830323696,None,demo2,001,2025-01-26_16h34.42.314,contrast_sensitivity,2024.2.4,None,2025-01-26 16h34.49.717769 -0500,
0.01,-1,0.05,92,32,1,left,0.42725662502925843,None,1,32,92,44,161.19785391690675,,,,161.18423608294688,161.78148737491574,162.21593291696627,left,0.42725662502925843,None,demo2,001,2025-01-26_16h34.42.314,contrast_sensitivity,2024.2.4,None,2025-01-26 16h34.49.717769 -0500,
0.0001,-1,0.025,93,33,1,right,0.6731959589524195,None,1,33,93,55,162.22179112490267,,,,162.2171001669485,162.8145876249764,163.4991098329192,right,0.6731959589524195,None,demo2,001,2025-01-26_16h34.42.314,contrast_sensitivity,2024.2.4,None,2025-01-26 16h34.49.717769 -0500,
1.0,-1,0.025,94,34,1,left,0.36304516706150025,None,1,34,94,59,163.50473929196596,,,,163.50021570792887,164.08554462494794,164.4530744169606,left,0.36304516706150025,None,demo2,001,2025-01-26_16h34.42.314,contrast_sensitivity,2024.2.4,None,2025-01-26 16h34.49.717769 -0500,
0.0001,-1,0.2,95,35,1,left,0.5482050830032676,None,1,35,95,19,164.46419941692147,,,,164.45432316698134,165.05054408300202,165.60201841697562,left,0.5482050830032676,None,demo2,001,2025-01-26_16h34.42.314,contrast_sensitivity,2024.2.4,None,2025-01-26 16h34.49.717769 -0500,
0.1,-1,0.05,96,36,1,left,0.1451575419632718,None,1,36,96,46,165.6142519999994,,,,165.60309883300215,166.19759558292571,166.35014570795465,left,0.1451575419632718,None,demo2,001,2025-01-26_16h34.42.314,contrast_sensitivity,2024.2.4,None,2025-01-26 16h34.49.717769 -0500,
0.01,1,0.05,97,37,1,left,0.4481451250612736,None,1,37,97,38,166.35522604198195,,,,166.35148745798506,166.9475747499382,167.3998934169067,left,0.4481451250612736,None,demo2,001,2025-01-26_16h34.42.314,contrast_sensitivity,2024.2.4,None,2025-01-26 16h34.49.717769 -0500,
0.01,-1,0.1,98,38,1,right,0.5360467500286177,None,1,38,98,32,167.40495916688815,,,,167.40114312490914,167.99763874989003,168.53625579189975,right,0.5360467500286177,None,demo2,001,2025-01-26_16h34.42.314,contrast_sensitivity,2024.2.4,None,2025-01-26 16h34.49.717769 -0500,
0.1,1,0.2,99,39,1,right,0.14301066601183265,None,1,39,99,16,168.54762754193507,,,,168.53738329198677,169.1316170420032,169.28241820796393,right,0.14301066601183265,None,demo2,001,2025-01-26_16h34.42.314,contrast_sensitivity,2024.2.4,None,2025-01-26 16h34.49.717769 -0500,
0.05,-1,0.05,100,40,1,right,0.3609229999128729,None,1,40,100,45,169.28768895799294,,,,169.2837092919508,169.88186070800293,170.25001108297147,right,0.3609229999128729,None,demo2,001,2025-01-26_16h34.42.314,contrast_sensitivity,2024.2.4,None,2025-01-26 16h34.49.717769 -0500,
0.0001,1,0.2,101,41,1,left,0.3196923329960555,None,1,41,101,13,170.25764491700102,,,,170.25187412498053,170.8489573749248,171.17168270796537,left,0.3196923329960555,None,demo2,001,2025-01-26_16h34.42.314,contrast_sensitivity,2024.2.4,None,2025-01-26 16h34.49.717769 -0500,
0.1,1,0.1,102,42,1,right,0.3514959580497816,None,1,42,102,28,171.18182508298196,,,,171.1736300420016,171.77010474994313,172.13230462488718,right,0.3514959580497816,None,demo2,001,2025-01-26_16h34.42.314,contrast_sensitivity,2024.2.4,None,2025-01-26 16h34.49.717769 -0500,
0.01,-1,0.4,103,43,1,left,0.37448400002904236,None,1,43,103,8,172.13731624989305,,,,172.13339029194321,172.7310631669825,173.11563274997752,left,0.37448400002904236,None,demo2,001,2025-01-26_16h34.42.314,contrast_sensitivity,2024.2.4,None,2025-01-26 16h34.49.717769 -0500,
0.0001,1,0.1,104,44,1,right,0.3952364580472931,None,1,44,104,25,173.12101537489798,,,,173.11666533292737,173.70227795792744,174.09918899997137,right,0.3952364580472931,None,demo2,001,2025-01-26_16h34.42.314,contrast_sensitivity,2024.2.4,None,2025-01-26 16h34.49.717769 -0500,
0.05,-1,0.1,105,45,1,left,0.41998712497297674,None,1,45,105,33,174.1038067919435,,,,174.10019599995576,174.69755749998149,175.11973104195204,left,0.41998712497297674,None,demo2,001,2025-01-26_16h34.42.314,contrast_sensitivity,2024.2.4,None,2025-01-26 16h34.49.717769 -0500,
1e-08,1,0.2,106,46,1,left,0.4803048330359161,None,1,46,106,12,175.131958541926,,,,175.12149924994446,175.7152210419299,176.20169608294964,left,0.4803048330359161,None,demo2,001,2025-01-26_16h34.42.314,contrast_sensitivity,2024.2.4,None,2025-01-26 16h34.49.717769 -0500,
0.01,1,0.025,107,47,1,right,0.9992275000549853,None,1,47,107,50,176.21489387494512,,,,176.20363812497817,176.7982254999224,177.79980341694318,right,0.9992275000549853,None,demo2,001,2025-01-26_16h34.42.314,contrast_sensitivity,2024.2.4,None,2025-01-26 16h34.49.717769 -0500,
0.01,-1,0.2,108,48,1,left,0.4706472920952365,None,1,48,108,20,177.80506170797162,,,,177.80133887496777,178.39775812497828,178.8828434579773,left,0.4706472920952365,None,demo2,001,2025-01-26_16h34.42.314,contrast_sensitivity,2024.2.4,None,2025-01-26 16h34.49.717769 -0500,
1.0,1,0.1,109,49,1,right,0.46738237503450364,None,1,49,109,29,178.88837333291303,,,,178.884117999929,179.48101454193238,179.95197591697797,right,0.46738237503450364,None,demo2,001,2025-01-26_16h34.42.314,contrast_sensitivity,2024.2.4,None,2025-01-26 16h34.49.717769 -0500,
1.0,-1,0.05,110,50,1,left,0.5227749160258099,None,1,50,110,47,179.96433599991724,,,,179.95303174993023,180.5665791669162,181.10195270797703,left,0.5227749160258099,None,demo2,001,2025-01-26_16h34.42.314,contrast_sensitivity,2024.2.4,None,2025-01-26 16h34.49.717769 -0500,
0.0001,1,0.4,111,51,1,right,0.35248570796102285,None,1,51,111,1,181.11525799997617,,,,181.10406779195182,181.71585683291778,182.0850961249089,right,0.35248570796102285,None,demo2,001,2025-01-26_16h34.42.314,contrast_sensitivity,2024.2.4,None,2025-01-26 16h34.49.717769 -0500,
0.1,-1,0.4,112,52,1,left,0.3527984169777483,None,1,52,112,10,182.0993372919038,,,,182.08739645790774,182.6995140829822,183.06765358289704,left,0.3527984169777483,None,demo2,001,2025-01-26_16h34.42.314,contrast_sensitivity,2024.2.4,None,2025-01-26 16h34.49.717769 -0500,
1e-08,1,0.025,113,53,1,left,0.47384737501852214,None,1,53,113,48,183.08216816699132,,,,183.0695102919126,183.66630641696975,184.15113595791627,left,0.47384737501852214,None,demo2,001,2025-01-26_16h34.42.314,contrast_sensitivity,2024.2.4,None,2025-01-26 16h34.49.717769 -0500,
0.0001,-1,0.4,114,54,1,left,0.6462024169741198,None,1,54,114,7,184.16524133295752,,,,184.153139666887,184.7660802078899,185.41842154192273,left,0.6462024169741198,None,demo2,001,2025-01-26_16h34.42.314,contrast_sensitivity,2024.2.4,None,2025-01-26 16h34.49.717769 -0500,
0.05,1,0.025,115,55,1,left,0.6595635409466922,None,1,55,115,51,185.43212416698225,,,,185.42031062499154,186.03267962497193,186.7017230829224,left,0.6595635409466922,None,demo2,001,2025-01-26_16h34.42.314,contrast_sensitivity,2024.2.4,None,2025-01-26 16h34.49.717769 -0500,
1e-08,-1,0.025,116,56,1,left,0.611479791929014,None,1,56,116,54,186.71546687500086,,,,186.7035843329504,187.2997580829542,187.9184925419977,left,0.611479791929014,None,demo2,001,2025-01-26_16h34.42.314,contrast_sensitivity,2024.2.4,None,2025-01-26 16h34.49.717769 -0500,
0.0001,1,0.05,117,57,1,left,0.5360615419922397,None,1,57,117,37,187.93200083298143,,,,187.9202679579612,188.5330904169241,189.08417804189958,left,0.5360615419922397,None,demo2,001,2025-01-26_16h34.42.314,contrast_sensitivity,2024.2.4,None,2025-01-26 16h34.49.717769 -0500,
1e-08,1,0.05,118,58,1,right,0.5625410410575569,None,1,58,118,36,189.09889991697855,,,,189.08612266695127,189.69963662489317,190.27156504197046,right,0.5625410410575569,None,demo2,001,2025-01-26_16h34.42.314,contrast_sensitivity,2024.2.4,None,2025-01-26 16h34.49.717769 -0500,
1e-08,-1,0.4,119,59,1,left,0.8523192919092253,None,1,59,119,6,190.28197620797437,,,,190.2730174579192,190.88283870799933,191.75236779195257,left,0.8523192919092253,None,demo2,001,2025-01-26_16h34.42.314,contrast_sensitivity,2024.2.4,None,2025-01-26 16h34.49.717769 -0500,
1e-08,-1,0.05,120,0,2,left,0.4397140829823911,None,2,0,120,42,191.7656037498964,,,,191.75425141688902,192.36639895790722,192.81850924994797,left,0.4397140829823911,None,demo2,001,2025-01-26_16h34.42.314,contrast_sensitivity,2024.2.4,None,2025-01-26 16h34.49.717769 -0500,
0.0001,1,0.4,121,1,2,right,0.3667089589871466,None,2,1,121,1,192.83199833298568,,,,192.82057070790324,193.4333323749015,193.8038192919921,right,0.3667089589871466,None,demo2,001,2025-01-26_16h34.42.314,contrast_sensitivity,2024.2.4,None,2025-01-26 16h34.49.717769 -0500,
0.05,1,0.2,122,2,2,right,0.34745779202785343,None,2,2,122,15,193.81546891690232,,,,193.80558441695757,194.41662899998482,194.76791004196275,right,0.34745779202785343,None,demo2,001,2025-01-26_16h34.42.314,contrast_sensitivity,2024.2.4,None,2025-01-26 16h34.49.717769 -0500,
0.01,-1,0.025,123,3,2,left,0.38830412505194545,None,2,3,123,56,194.7821523329476,,,,194.7698640829185,195.38265641697217,195.78406112489756,left,0.38830412505194545,None,demo2,001,2025-01-26_16h34.42.314,contrast_sensitivity,2024.2.4,None,2025-01-26 16h34.49.717769 -0500,
0.01,-1,0.1,124,4,2,left,0.40589562500827014,None,2,4,124,32,195.79857124993578,,,,195.78582291689236,196.3998370419722,196.81824320799205,left,0.40589562500827014,None,demo2,001,2025-01-26_16h34.42.314,contrast_sensitivity,2024.2.4,None,2025-01-26 16h34.49.717769 -0500,
1e-08,1,0.2,125,5,2,right,0.9877747920108959,None,2,5,125,12,196.8319454579614,,,,196.82030974992085,197.4162168749608,198.41748174990062,right,0.9877747920108959,None,demo2,001,2025-01-26_16h34.42.314,contrast_sensitivity,2024.2.4,None,2025-01-26 16h34.49.717769 -0500,
1.0,-1,0.2,126,6,2,left,0.4357082499191165,None,2,6,126,23,198.43261495791376,,,,198.41925224999432,199.03320020798128,199.48330283293035,left,0.4357082499191165,None,demo2,001,2025-01-26_16h34.42.314,contrast_sensitivity,2024.2.4,None,2025-01-26 16h34.49.717769 -0500,
0.1,-1,0.025,127,7,2,left,0.6669689579866827,None,2,7,127,58,199.4904817919014,,,,199.48492308298592,200.0829014579067,200.76847216696478,left,0.6669689579866827,None,demo2,001,2025-01-26_16h34.42.314,contrast_sensitivity,2024.2.4,None,2025-01-26 16h34.49.717769 -0500,
0.0001,-1,0.1,128,8,2,right,0.5997068329015747,None,2,8,128,31,200.7818343329709,,,,200.7704493328929,201.36659899994265,201.9682822918985,right,0.5997068329015747,None,demo2,001,2025-01-26_16h34.42.314,contrast_sensitivity,2024.2.4,None,2025-01-26 16h34.49.717769 -0500,
1.0,-1,0.05,129,9,2,left,0.4595719169592485,None,2,9,129,47,201.98193274997175,,,,201.97008199989796,202.58538829197641,203.0513682499295,left,0.4595719169592485,None,demo2,001,2025-01-26_16h34.42.314,contrast_sensitivity,2024.2.4,None,2025-01-26 16h34.49.717769 -0500,
0.0001,1,0.05,130,10,2,left,0.4551627089967951,None,2,10,130,37,203.0655704169767,,,,203.05338720791042,203.66689875000156,204.13486995792482,left,0.4551627089967951,None,demo2,001,2025-01-26_16h34.42.314,contrast_sensitivity,2024.2.4,None,2025-01-26 16h34.49.717769 -0500,
1.0,1,0.05,131,11,2,right,0.4780805829213932,None,2,11,131,41,204.14904670789838,,,,204.13677424995694,204.74974429199938,205.23458695795853,right,0.4780805829213932,None,demo2,001,2025-01-26_16h34.42.314,contrast_sensitivity,2024.2.4,None,2025-01-26 16h34.49.717769 -0500,
0.05,1,0.1,132,12,2,right,0.35838487499859184,None,2,12,132,27,205.24897637497634,,,,205.23646862490568,205.84939454193227,206.2174440829549,right,0.35838487499859184,None,demo2,001,2025-01-26_16h34.42.314,contrast_sensitivity,2024.2.4,None,2025-01-26 16h34.49.717769 -0500,
1.0,1,0.2,133,13,2,right,0.39011354197282344,None,2,13,133,17,206.23225012491457,,,,206.21930779190734,206.81665354198776,207.2181263329694,right,0.39011354197282344,None,demo2,001,2025-01-26_16h34.42.314,contrast_sensitivity,2024.2.4,None,2025-01-26 16h34.49.717769 -0500,
1e-08,-1,0.025,134,14,2,right,0.300958166946657,None,2,14,134,54,207.23211291700136,,,,207.21996362495702,207.83272508298978,208.15180245798547,right,0.300958166946657,None,demo2,001,2025-01-26_16h34.42.314,contrast_sensitivity,2024.2.4,None,2025-01-26 16h34.49.717769 -0500,
0.0001,1,0.1,135,15,2,left,0.4517667090985924,None,2,15,135,25,208.16537512489595,,,,208.1539127919823,208.76587449992076,209.2348263328895,left,0.4517667090985924,None,demo2,001,2025-01-26_16h34.42.314,contrast_sensitivity,2024.2.4,None,2025-01-26 16h34.49.717769 -0500,
0.01,-1,0.2,136,16,2,right,0.28349020902533084,None,2,16,136,20,209.24893395788968,,,,209.23672299995087,209.8491629579803,210.13503512495663,right,0.28349020902533084,None,demo2,001,2025-01-26_16h34.42.314,contrast_sensitivity,2024.2.4,None,2025-01-26 16h34.49.717769 -0500,
1e-08,1,0.025,137,17,2,right,0.49939345789607614,None,2,17,137,48,210.14872937498149,,,,210.13701966695953,210.74923254200257,211.25115595792886,right,0.49939345789607614,None,demo2,001,2025-01-26_16h34.42.314,contrast_sensitivity,2024.2.4,None,2025-01-26 16h34.49.717769 -0500,
0.0001,1,0.2,138,18,2,right,0.5709029999561608,None,2,18,138,13,211.26530641689897,,,,211.25340474990662,211.8656087499112,212.45000658289064,right,0.5709029999561608,None,demo2,001,2025-01-26_16h34.42.314,contrast_sensitivity,2024.2.4,None,2025-01-26 16h34.49.717769 -0500,
0.0001,-1,0.025,139,19,2,left,0.5439378749579191,None,2,19,139,55,212.45535299996845,,,,212.4513362919679,213.04863216693047,213.5996538749896,left,0.5439378749579191,None,demo2,001,2025-01-26_16h34.42.314,contrast_sensitivity,2024.2.4,None,2025-01-26 16h34.49.717769 -0500,
0.01,1,0.4,140,20,2,right,0.5605967500014231,None,2,20,140,2,213.60555770795327,,,,213.6009667919716,214.19999129197095,214.768471499905,right,0.5605967500014231,None,demo2,001,2025-01-26_16h34.42.314,contrast_sensitivity,2024.2.4,None,2025-01-26 16h34.49.717769 -0500,
0.01,-1,0.05,141,21,2,right,0.3592809169786051,None,2,21,141,44,214.78219124989118,,,,214.77036324993242,215.3832879998954,215.75172679196112,right,0.3592809169786051,None,demo2,001,2025-01-26_16h34.42.314,contrast_sensitivity,2024.2.4,None,2025-01-26 16h34.49.717769 -0500,
1.0,-1,0.025,142,22,2,left,0.2984530000248924,None,2,22,142,59,215.7654680419946,,,,215.7535705829505,216.3491073329933,216.6527077499777,left,0.2984530000248924,None,demo2,001,2025-01-26_16h34.42.314,contrast_sensitivity,2024.2.4,None,2025-01-26 16h34.49.717769 -0500,
1e-08,-1,0.2,143,23,2,left,0.42495350004173815,None,2,23,143,18,216.66544741694815,,,,216.6551169169834,217.2663544169627,217.7016596669564,left,0.42495350004173815,None,demo2,001,2025-01-26_16h34.42.314,contrast_sensitivity,2024.2.4,None,2025-01-26 16h34.49.717769 -0500,
0.05,1,0.025,144,24,2,left,0.4173834159737453,None,2,24,144,51,217.71539966692217,,,,217.70356508297846,218.30106695799623,218.73216324998066,left,0.4173834159737453,None,demo2,001,2025-01-26_16h34.42.314,contrast_sensitivity,2024.2.4,None,2025-01-26 16h34.49.717769 -0500,
0.05,-1,0.025,145,25,2,right,0.419004459050484,None,2,25,145,57,218.73693812498823,,,,218.73328183300328,219.33190141699743,219.75356562493835,right,0.419004459050484,None,demo2,001,2025-01-26_16h34.42.314,contrast_sensitivity,2024.2.4,None,2025-01-26 16h34.49.717769 -0500,
0.05,-1,0.1,146,26,2,left,0.37659583310596645,None,2,26,146,33,219.7649423329858,,,,219.75517708295956,220.3488550829934,220.7349994169781,left,0.37659583310596645,None,demo2,001,2025-01-26_16h34.42.314,contrast_sensitivity,2024.2.4,None,2025-01-26 16h34.49.717769 -0500,
0.1,-1,0.1,147,27,2,left,0.25729179207701236,None,2,27,147,34,220.74870724999346,,,,220.73767466691788,221.3491206249455,221.61762199993245,left,0.25729179207701236,None,demo2,001,2025-01-26_16h34.42.314,contrast_sensitivity,2024.2.4,None,2025-01-26 16h34.49.717769 -0500,
0.01,1,0.1,148,28,2,right,0.20093533291947097,None,2,28,148,26,221.63202737492975,,,,221.61969454190694,222.23241637495812,222.4515825829003,right,0.20093533291947097,None,demo2,001,2025-01-26_16h34.42.314,contrast_sensitivity,2024.2.4,None,2025-01-26 16h34.49.717769 -0500,
0.05,1,0.05,149,29,2,right,0.17366224993020296,None,2,29,149,39,222.46538999991026,,,,222.4534307079157,223.06565445789602,223.2532544999849,right,0.17366224993020296,None,demo2,001,2025-01-26_16h34.42.314,contrast_sensitivity,2024.2.4,None,2025-01-26 16h34.49.717769 -0500,
1.0,1,0.025,150,30,2,right,0.06674999999813735,None,2,30,150,53,223.26542729197536,,,,223.2550496669719,223.86555316695012,223.94143683288712,right,0.06674999999813735,None,demo2,001,2025-01-26_16h34.42.314,contrast_sensitivity,2024.2.4,None,2025-01-26 16h34.49.717769 -0500,
0.1,-1,0.05,151,31,2,left,0.16960833291523159,None,2,31,151,46,223.94833758298773,,,,223.942567332997,224.53372074989602,224.71764099993743,left,0.16960833291523159,None,demo2,001,2025-01-26_16h34.42.314,contrast_sensitivity,2024.2.4,None,2025-01-26 16h34.49.717769 -0500,
1e-08,1,0.05,152,32,2,left,0.3156044170027599,None,2,32,152,36,224.73180062498432,,,,224.71945637499448,225.3186826669844,225.648976874887,left,0.3156044170027599,None,demo2,001,2025-01-26_16h34.42.314,contrast_sensitivity,2024.2.4,None,2025-01-26 16h34.49.717769 -0500,
0.01,1,0.05,153,33,2,left,0.2466348329326138,None,2,33,153,38,225.65441245795228,,,,225.65009041689336,226.23666129191406,226.48803149990272,left,0.2466348329326138,None,demo2,001,2025-01-26_16h34.42.314,contrast_sensitivity,2024.2.4,None,2025-01-26 16h34.49.717769 -0500,
0.1,-1,0.2,154,34,2,left,0.05240475002210587,None,2,34,154,22,226.49835241690744,,,,226.4898515829118,227.08384545799345,227.14894595788792,left,0.05240475002210587,None,demo2,001,2025-01-26_16h34.42.314,contrast_sensitivity,2024.2.4,None,2025-01-26 16h34.49.717769 -0500,
0.05,1,0.4,155,35,2,right,0.8082971659023315,None,2,35,155,3,227.1541091669351,,,,227.1501550419489,227.74901458295062,228.56761599995662,right,0.8082971659023315,None,demo2,001,2025-01-26_16h34.42.314,contrast_sensitivity,2024.2.4,None,2025-01-26 16h34.49.717769 -0500,
1.0,1,0.1,156,36,2,right,0.22989541699644178,None,2,36,156,29,228.576476624934,,,,228.56990020792,229.16531370789744,229.40330020792317,right,0.22989541699644178,None,demo2,001,2025-01-26_16h34.42.314,contrast_sensitivity,2024.2.4,None,2025-01-26 16h34.49.717769 -0500,
0.05,-1,0.4,157,37,2,left,0.1637109590228647,None,2,37,157,9,229.41538770799525,,,,229.4052247919608,230.0164688329678,230.1849969578907,left,0.1637109590228647,None,demo2,001,2025-01-26_16h34.42.314,contrast_sensitivity,2024.2.4,None,2025-01-26 16h34.49.717769 -0500,
0.1,1,0.4,158,38,2,right,0.2268508750712499,None,2,38,158,4,230.19882737495936,,,,230.18685879197437,230.78234029188752,231.0190471248934,right,0.2268508750712499,None,demo2,001,2025-01-26_16h34.42.314,contrast_sensitivity,2024.2.4,None,2025-01-26 16h34.49.717769 -0500,
1.0,1,0.4,159,39,2,right,0.2759817910846323,None,2,39,159,5,231.03212662495207,,,,231.02111666696146,231.61516970791854,231.90039437497035,right,0.2759817910846323,None,demo2,001,2025-01-26_16h34.42.314,contrast_sensitivity,2024.2.4,None,2025-01-26 16h34.49.717769 -0500,
0.1,1,0.2,160,40,2,right,0.2261566249653697,None,2,40,160,16,231.90877858293243,,,,231.9022924999008,232.49899862497114,232.7340224579675,right,0.2261566249653697,None,demo2,001,2025-01-26_16h34.42.314,contrast_sensitivity,2024.2.4,None,2025-01-26 16h34.49.717769 -0500,
0.1,-1,0.4,161,41,2,left,0.19402249995619059,None,2,41,161,10,232.7420286249835,,,,232.7361675829161,233.33209379191976,233.5341685418971,left,0.19402249995619059,None,demo2,001,2025-01-26_16h34.42.314,contrast_sensitivity,2024.2.4,None,2025-01-26 16h34.49.717769 -0500,
0.0001,1,0.025,162,42,2,left,0.33316704200115055,None,2,42,162,49,233.54866154189222,,,,233.53599004191346,234.13193062494975,234.4676914169686,left,0.33316704200115055,None,demo2,001,2025-01-26_16h34.42.314,contrast_sensitivity,2024.2.4,None,2025-01-26 16h34.49.717769 -0500,
0.1,1,0.1,163,43,2,right,0.2818432910135016,None,2,43,163,28,234.4819125829963,,,,234.4696211249102,235.08222245797515,235.36733137490228,right,0.2818432910135016,None,demo2,001,2025-01-26_16h34.42.314,contrast_sensitivity,2024.2.4,None,2025-01-26 16h34.49.717769 -0500,
0.01,1,0.025,164,44,2,right,0.15377262502443045,None,2,44,164,50,235.38189354189672,,,,235.3684199169511,235.98224829195533,236.15155691700056,right,0.15377262502443045,None,demo2,001,2025-01-26_16h34.42.314,contrast_sensitivity,2024.2.4,None,2025-01-26 16h34.49.717769 -0500,
0.1,1,0.05,165,45,2,right,0.16342700005043298,None,2,45,165,40,236.16557049995754,,,,236.15355820790865,236.7486108749872,236.9178246249212,right,0.16342700005043298,None,demo2,001,2025-01-26_16h34.42.314,contrast_sensitivity,2024.2.4,None,2025-01-26 16h34.49.717769 -0500,
1e-08,-1,0.1,166,46,2,right,0.3577664999756962,None,2,46,166,30,236.92658433294855,,,,236.92060637497343,237.5152022918919,237.88456312497146,right,0.3577664999756962,None,demo2,001,2025-01-26_16h34.42.314,contrast_sensitivity,2024.2.4,None,2025-01-26 16h34.49.717769 -0500,
0.0001,-1,0.2,167,47,2,left,0.3188814999302849,None,2,47,167,19,237.89856124995276,,,,237.88649762491696,238.48211174993776,238.80499254190363,left,0.3188814999302849,None,demo2,001,2025-01-26_16h34.42.314,contrast_sensitivity,2024.2.4,None,2025-01-26 16h34.49.717769 -0500,
0.0001,-1,0.05,168,48,2,left,0.41013216599822044,None,2,48,168,43,238.81502358289436,,,,238.80651379190385,239.41584837494884,239.834442207939,left,0.41013216599822044,None,demo2,001,2025-01-26_16h34.42.314,contrast_sensitivity,2024.2.4,None,2025-01-26 16h34.49.717769 -0500,
0.0001,-1,0.4,169,49,2,left,0.0785003750352189,None,2,49,169,7,239.84320091689005,,,,239.83640933292918,240.44942899991293,240.5336099169217,left,0.0785003750352189,None,demo2,001,2025-01-26_16h34.42.314,contrast_sensitivity,2024.2.4,None,2025-01-26 16h34.49.717769 -0500,
1.0,-1,0.4,170,50,2,left,0.11184866703115404,None,2,50,170,11,240.54109612491447,,,,240.53573833289556,241.1310848329449,241.25061099999584,left,0.11184866703115404,None,demo2,001,2025-01-26_16h34.42.314,contrast_sensitivity,2024.2.4,None,2025-01-26 16h34.49.717769 -0500,
0.01,1,0.2,171,51,2,left,0.34950099990237504,None,2,51,171,14,241.25853958295193,,,,241.25234283297323,241.85455737495795,242.21771583298687,left,0.34950099990237504,None,demo2,001,2025-01-26_16h34.42.314,contrast_sensitivity,2024.2.4,None,2025-01-26 16h34.49.717769 -0500,
0.1,1,0.025,172,52,2,right,0.16183983301743865,None,2,52,172,52,242.22594862489495,,,,242.21957120799925,242.81521266698837,242.98374208295718,right,0.16183983301743865,None,demo2,001,2025-01-26_16h34.42.314,contrast_sensitivity,2024.2.4,None,2025-01-26 16h34.49.717769 -0500,
0.05,-1,0.2,173,53,2,left,0.265011583105661,None,2,53,173,21,242.99233366688713,,,,242.98570566694252,243.58187149988953,243.8506966669811,left,0.265011583105661,None,demo2,001,2025-01-26_16h34.42.314,contrast_sensitivity,2024.2.4,None,2025-01-26 16h34.49.717769 -0500,
1e-08,1,0.1,174,54,2,left,0.3232381659327075,None,2,54,174,24,243.8581224998925,,,,243.8527988329297,244.44861212489195,244.78421808290295,left,0.3232381659327075,None,demo2,001,2025-01-26_16h34.42.314,contrast_sensitivity,2024.2.4,None,2025-01-26 16h34.49.717769 -0500,
1e-08,-1,0.4,175,55,2,left,0.37298887502402067,None,2,55,175,6,244.7930226669414,,,,244.78653849998955,245.3818354998948,245.76737083296757,left,0.37298887502402067,None,demo2,001,2025-01-26_16h34.42.314,contrast_sensitivity,2024.2.4,None,2025-01-26 16h34.49.717769 -0500,
0.01,-1,0.4,176,56,2,left,0.17666416591964662,None,2,56,176,8,245.77604695793707,,,,245.76937100000214,246.36525995796546,246.55084208294284,left,0.17666416591964662,None,demo2,001,2025-01-26_16h34.42.314,contrast_sensitivity,2024.2.4,None,2025-01-26 16h34.49.717769 -0500,
1.0,-1,0.1,177,57,2,left,0.2733186660334468,None,2,57,177,35,246.55926441692282,,,,246.5528038329212,247.14851458289195,247.43429691693746,left,0.2733186660334468,None,demo2,001,2025-01-26_16h34.42.314,contrast_sensitivity,2024.2.4,None,2025-01-26 16h34.49.717769 -0500,
0.05,-1,0.05,178,58,2,right,0.3166396669112146,None,2,58,178,45,247.44286079192534,,,,247.43622929195408,248.0490554169519,248.37042270798702,right,0.3166396669112146,None,demo2,001,2025-01-26_16h34.42.314,contrast_sensitivity,2024.2.4,None,2025-01-26 16h34.49.717769 -0500,
1e-08,1,0.4,179,59,2,left,0.4359550839290023,None,2,59,179,0,248.3818501669448,,,,248.3724033329636,248.9688636669889,249.41753816697747,left,0.4359550839290023,None,demo2,001,2025-01-26_16h34.42.314,contrast_sensitivity,2024.2.4,None,2025-01-26 16h34.49.717769 -0500,
0.1,-1,0.1,180,0,3,left,0.27362537500448525,None,3,0,180,34,249.42597512493376,,,,249.41953345795628,250.0150908329524,250.30078870791476,left,0.27362537500448525,None,demo2,001,2025-01-26_16h34.42.314,contrast_sensitivity,2024.2.4,None,2025-01-26 16h34.49.717769 -0500,
0.05,1,0.05,181,1,3,right,0.5303340419195592,None,3,1,181,39,250.3093848329736,,,,250.30276937491726,250.89842270791996,251.43430191697553,right,0.5303340419195592,None,demo2,001,2025-01-26_16h34.42.314,contrast_sensitivity,2024.2.4,None,2025-01-26 16h34.49.717769 -0500,
0.1,-1,0.2,182,2,3,left,0.37072045798413455,None,3,2,182,22,251.44300670793746,,,,251.43630099995062,252.03192387497984,252.41739212488756,left,0.37072045798413455,None,demo2,001,2025-01-26_16h34.42.314,contrast_sensitivity,2024.2.4,None,2025-01-26 16h34.49.717769 -0500,
1e-08,-1,0.025,183,3,3,left,0.43772979208733886,None,3,3,183,54,252.42615624994505,,,,252.41950704192277,253.01489845791366,253.45436941692606,left,0.43772979208733886,None,demo2,001,2025-01-26_16h34.42.314,contrast_sensitivity,2024.2.4,None,2025-01-26 16h34.49.717769 -0500,
0.01,1,0.025,184,4,3,right,0.4783603339456022,None,3,4,184,50,253.46501416689716,,,,253.4565809170017,254.0532751249848,254.53371449990664,right,0.4783603339456022,None,demo2,001,2025-01-26_16h34.42.314,contrast_sensitivity,2024.2.4,None,2025-01-26 16h34.49.717769 -0500,
1.0,1,0.2,185,5,3,right,0.44775074999779463,None,3,5,185,17,254.54159808298573,,,,254.53587449993938,255.13186199998017,255.5836588749662,right,0.44775074999779463,None,demo2,001,2025-01-26_16h34.42.314,contrast_sensitivity,2024.2.4,None,2025-01-26 16h34.49.717769 -0500,
0.0001,1,0.4,186,6,3,right,0.4732051659375429,None,3,6,186,1,255.59163058293052,,,,255.5855019169394,256.18228404188994,256.6673620418878,right,0.4732051659375429,None,demo2,001,2025-01-26_16h34.42.314,contrast_sensitivity,2024.2.4,None,2025-01-26 16h34.49.717769 -0500,
0.1,1,0.05,187,7,3,right,0.43433645903132856,None,3,7,187,40,256.67616399994586,,,,256.66942745796405,257.26517845795024,257.71710391691886,right,0.43433645903132856,None,demo2,001,2025-01-26_16h34.42.314,contrast_sensitivity,2024.2.4,None,2025-01-26 16h34.49.717769 -0500,
0.0001,1,0.025,188,8,3,left,0.48310816602315754,None,3,8,188,49,257.73192312498577,,,,257.71882316691335,258.31536720797885,258.80088487500325,left,0.48310816602315754,None,demo2,001,2025-01-26_16h34.42.314,contrast_sensitivity,2024.2.4,None,2025-01-26 16h34.49.717769 -0500,
1e-08,-1,0.4,189,9,3,left,0.7309589160140604,None,3,9,189,6,258.80929283297155,,,,258.8028236669488,259.39858445792925,260.1339914579876,left,0.7309589160140604,None,demo2,001,2025-01-26_16h34.42.314,contrast_sensitivity,2024.2.4,None,2025-01-26 16h34.49.717769 -0500,
0.1,1,0.025,190,10,3,right,0.44861295807641,None,3,10,190,52,260.1420093328925,,,,260.135910791927,260.7318474169588,261.1837763329968,right,0.44861295807641,None,demo2,001,2025-01-26_16h34.42.314,contrast_sensitivity,2024.2.4,None,2025-01-26 16h34.49.717769 -0500,
0.0001,-1,0.1,191,11,3,right,0.5366943329572678,None,3,11,191,31,261.1920150829246,,,,261.1856953749666,261.78174645791296,262.321274332935,right,0.5366943329572678,None,demo2,001,2025-01-26_16h34.42.314,contrast_sensitivity,2024.2.4,None,2025-01-26 16h34.49.717769 -0500,
0.0001,1,0.2,192,12,3,right,0.5716729169944301,None,3,12,192,13,262.3319094169419,,,,262.3232002079021,262.9197574579157,263.5008147920016,right,0.5716729169944301,None,demo2,001,2025-01-26_16h34.42.314,contrast_sensitivity,2024.2.4,None,2025-01-26 16h34.49.717769 -0500,
1.0,1,0.05,193,13,3,right,0.39986499992664903,None,3,13,193,41,263.5102577919606,,,,263.50284954195376,264.0985009999713,264.5012629579287,right,0.39986499992664903,None,demo2,001,2025-01-26_16h34.42.314,contrast_sensitivity,2024.2.4,None,2025-01-26 16h34.49.717769 -0500,
1.0,-1,0.05,194,14,3,left,0.31477916694711894,None,3,14,194,47,264.50951104192063,,,,264.50309337489307,265.0985678329598,265.4176854999969,left,0.31477916694711894,None,demo2,001,2025-01-26_16h34.42.314,contrast_sensitivity,2024.2.4,None,2025-01-26 16h34.49.717769 -0500,
1e-08,1,0.2,195,15,3,right,0.3621545829810202,None,3,15,195,12,265.4260811669519,,,,265.4197820828995,266.01520533289295,266.3841148749925,right,0.3621545829810202,None,demo2,001,2025-01-26_16h34.42.314,contrast_sensitivity,2024.2.4,None,2025-01-26 16h34.49.717769 -0500,
0.01,1,0.4,196,16,3,right,0.3444093749858439,None,3,16,196,2,266.3924852919299,,,,266.38600333291106,266.9818582079606,267.33491999993566,right,0.3444093749858439,None,demo2,001,2025-01-26_16h34.42.314,contrast_sensitivity,2024.2.4,None,2025-01-26 16h34.49.717769 -0500,
0.0001,1,0.1,197,17,3,right,0.6424499579006806,None,3,17,197,25,267.34375474997796,,,,267.33702666696627,267.9318854579469,268.58421374997124,right,0.6424499579006806,None,demo2,001,2025-01-26_16h34.42.314,contrast_sensitivity,2024.2.4,None,2025-01-26 16h34.49.717769 -0500,
0.1,-1,0.4,198,18,3,left,0.4063912919955328,None,3,18,198,10,268.59886995796114,,,,268.5861273749033,269.18182633293327,269.599693999975,left,0.4063912919955328,None,demo2,001,2025-01-26_16h34.42.314,contrast_sensitivity,2024.2.4,None,2025-01-26 16h34.49.717769 -0500,
1.0,-1,0.2,199,19,3,left,0.36662087496370077,None,3,19,199,23,269.605318582966,,,,269.6012291669613,270.19856708298903,270.5671784169972,left,0.36662087496370077,None,demo2,001,2025-01-26_16h34.42.314,contrast_sensitivity,2024.2.4,None,2025-01-26 16h34.49.717769 -0500,
1.0,1,0.025,200,20,3,right,0.4730270419968292,None,3,20,200,53,270.5754311669152,,,,270.5694041249808,271.16519691690337,271.65043983294163,right,0.4730270419968292,None,demo2,001,2025-01-26_16h34.42.314,contrast_sensitivity,2024.2.4,None,2025-01-26 16h34.49.717769 -0500,
0.0001,-1,0.05,201,21,3,right,0.6195778340334073,None,3,21,201,43,271.65928262495436,,,,271.65245466690976,272.24860758299474,272.87112841696944,right,0.6195778340334073,None,demo2,001,2025-01-26_16h34.42.314,contrast_sensitivity,2024.2.4,None,2025-01-26 16h34.49.717769 -0500,
0.1,-1,0.05,202,22,3,left,0.4332235000329092,None,3,22,202,46,272.88167433289345,,,,272.8731416249648,273.469888457912,273.91827874991577,left,0.4332235000329092,None,demo2,001,2025-01-26_16h34.42.314,contrast_sensitivity,2024.2.4,None,2025-01-26 16h34.49.717769 -0500,
1.0,-1,0.4,203,23,3,left,0.4877880000276491,None,3,23,203,11,273.93214870791417,,,,273.92038004193455,274.51531287492253,275.0045509999618,left,0.4877880000276491,None,demo2,001,2025-01-26_16h34.42.314,contrast_sensitivity,2024.2.4,None,2025-01-26 16h34.49.717769 -0500,
0.0001,-1,0.025,204,24,3,right,0.36286208394449204,None,3,24,204,55,275.015054749907,,,,275.0065698749386,275.6032382498961,275.9712562499335,right,0.36286208394449204,None,demo2,001,2025-01-26_16h34.42.314,contrast_sensitivity,2024.2.4,None,2025-01-26 16h34.49.717769 -0500,
0.05,1,0.4,205,25,3,right,0.3081569579662755,None,3,25,205,3,275.98168804193847,,,,275.97319524991326,276.57090391695965,276.8833924999926,right,0.3081569579662755,None,demo2,001,2025-01-26_16h34.42.314,contrast_sensitivity,2024.2.4,None,2025-01-26 16h34.49.717769 -0500,
0.0001,1,0.05,206,26,3,right,0.43914045800920576,None,3,26,206,37,276.89236179192085,,,,276.8852262919536,277.4818872079486,277.93399783293717,right,0.43914045800920576,None,demo2,001,2025-01-26_16h34.42.314,contrast_sensitivity,2024.2.4,None,2025-01-26 16h34.49.717769 -0500,
0.05,1,0.1,207,27,3,right,0.4041235839249566,None,3,27,207,27,277.9415922499029,,,,277.9361278329743,278.5318936249241,278.9377720420016,right,0.4041235839249566,None,demo2,001,2025-01-26_16h34.42.314,contrast_sensitivity,2024.2.4,None,2025-01-26 16h34.49.717769 -0500,
1e-08,-1,0.05,208,28,3,right,0.489329291973263,None,3,28,208,42,278.94848779193126,,,,278.93974704190623,279.5368051249534,280.0334016669076,right,0.489329291973263,None,demo2,001,2025-01-26_16h34.42.314,contrast_sensitivity,2024.2.4,None,2025-01-26 16h34.49.717769 -0500,
0.05,-1,0.4,209,29,3,left,0.35402570804581046,None,3,29,209,9,280.0415539999958,,,,280.0353683329886,280.63194291689433,280.9880884999875,left,0.35402570804581046,None,demo2,001,2025-01-26_16h34.42.314,contrast_sensitivity,2024.2.4,None,2025-01-26 16h34.49.717769 -0500,
1.0,-1,0.1,210,30,3,left,0.3191752500133589,None,3,30,210,35,280.99834349995945,,,,280.9899974169675,281.5869147919584,281.9175239999313,left,0.3191752500133589,None,demo2,001,2025-01-26_16h34.42.314,contrast_sensitivity,2024.2.4,None,2025-01-26 16h34.49.717769 -0500,
1e-08,1,0.05,211,31,3,left,0.5374517500167713,None,3,31,211,36,281.9261897079414,,,,281.9193893329939,282.5154320419533,283.0543910419801,left,0.5374517500167713,None,demo2,001,2025-01-26_16h34.42.314,contrast_sensitivity,2024.2.4,None,2025-01-26 16h34.49.717769 -0500,
0.01,-1,0.1,212,32,3,left,0.5230920000467449,None,3,32,212,32,283.06499187496956,,,,283.0562689579092,283.65394966700114,284.184277458,left,0.5230920000467449,None,demo2,001,2025-01-26_16h34.42.314,contrast_sensitivity,2024.2.4,None,2025-01-26 16h34.49.717769 -0500,
1e-08,1,0.1,213,33,3,left,0.4392170829232782,None,3,33,213,24,284.193242374924,,,,284.1863931249827,284.7816952499561,285.23406945797615,left,0.4392170829232782,None,demo2,001,2025-01-26_16h34.42.314,contrast_sensitivity,2024.2.4,None,2025-01-26 16h34.49.717769 -0500,
0.0001,-1,0.4,214,34,3,left,0.3799952908884734,None,3,34,214,7,285.2427307498874,,,,285.23660787497647,285.83185041695833,286.21776733291335,left,0.3799952908884734,None,demo2,001,2025-01-26_16h34.42.314,contrast_sensitivity,2024.2.4,None,2025-01-26 16h34.49.717769 -0500,
1e-08,1,0.4,215,35,3,right,0.33121995895635337,None,3,35,215,0,286.2321122919675,,,,286.2196346669225,286.8156064999057,287.15010462491773,right,0.33121995895635337,None,demo2,001,2025-01-26_16h34.42.314,contrast_sensitivity,2024.2.4,None,2025-01-26 16h34.49.717769 -0500,
1.0,1,0.1,216,36,3,right,0.44334962498396635,None,3,36,216,29,287.15788812492974,,,,287.1519447079627,287.748564666952,288.20043083291966,right,0.44334962498396635,None,demo2,001,2025-01-26_16h34.42.314,contrast_sensitivity,2024.2.4,None,2025-01-26 16h34.49.717769 -0500,
1e-08,1,0.025,217,37,3,right,0.40293908293824643,None,3,37,217,48,288.2092108329525,,,,288.20238583290484,288.79846599989105,289.2046815418871,right,0.40293908293824643,None,demo2,001,2025-01-26_16h34.42.314,contrast_sensitivity,2024.2.4,None,2025-01-26 16h34.49.717769 -0500,
1.0,1,0.4,218,38,3,right,0.4243554159766063,None,3,38,218,5,289.21510599995963,,,,289.20667787489947,289.80344866693486,290.2343438749667,right,0.4243554159766063,None,demo2,001,2025-01-26_16h34.42.314,contrast_sensitivity,2024.2.4,None,2025-01-26 16h34.49.717769 -0500,
0.1,1,0.1,219,39,3,right,0.3450764170847833,None,3,39,219,28,290.2435177079169,,,,290.2367626669584,290.8317781249061,291.18441399990115,right,0.3450764170847833,None,demo2,001,2025-01-26_16h34.42.314,contrast_sensitivity,2024.2.4,None,2025-01-26 16h34.49.717769 -0500,
0.05,1,0.025,220,40,3,left,0.40569108293857425,None,3,40,220,51,291.1924926249776,,,,291.1862624998903,291.7820217499975,292.2003663328942,left,0.40569108293857425,None,demo2,001,2025-01-26_16h34.42.314,contrast_sensitivity,2024.2.4,None,2025-01-26 16h34.49.717769 -0500,
0.01,1,0.1,221,41,3,right,0.424989250022918,None,3,41,221,26,292.20802416699007,,,,292.20247074996587,292.7986748329131,293.23411762493197,right,0.424989250022918,None,demo2,001,2025-01-26_16h34.42.314,contrast_sensitivity,2024.2.4,None,2025-01-26 16h34.49.717769 -0500,
0.05,-1,0.2,222,42,3,left,0.37474287499208003,None,3,42,222,21,293.24230679194443,,,,293.23604733299,293.84891012497246,294.23419958294835,left,0.37474287499208003,None,demo2,001,2025-01-26_16h34.42.314,contrast_sensitivity,2024.2.4,None,2025-01-26 16h34.49.717769 -0500,
0.01,-1,0.4,223,43,3,left,0.4046705000801012,None,3,43,223,8,294.24255645798985,,,,294.2361063749995,294.8319045829121,295.25033262500074,left,0.4046705000801012,None,demo2,001,2025-01-26_16h34.42.314,contrast_sensitivity,2024.2.4,None,2025-01-26 16h34.49.717769 -0500,
0.01,-1,0.2,224,44,3,left,0.3539434999693185,None,3,44,224,20,295.2595012919046,,,,295.25235274992883,295.8486378749367,296.20463033299893,left,0.3539434999693185,None,demo2,001,2025-01-26_16h34.42.314,contrast_sensitivity,2024.2.4,None,2025-01-26 16h34.49.717769 -0500,
0.05,-1,0.1,225,45,3,left,0.23709766694810241,None,3,45,225,33,296.21516454196535,,,,296.20658887492027,296.7984685829142,297.0379979169229,left,0.23709766694810241,None,demo2,001,2025-01-26_16h34.42.314,contrast_sensitivity,2024.2.4,None,2025-01-26 16h34.49.717769 -0500,
1.0,-1,0.025,226,46,3,left,0.4728862920310348,None,3,46,226,59,297.04829424992204,,,,297.03993179195095,297.6367604169063,298.1172362919897,left,0.4728862920310348,None,demo2,001,2025-01-26_16h34.42.314,contrast_sensitivity,2024.2.4,None,2025-01-26 16h34.49.717769 -0500,
0.0001,-1,0.2,227,47,3,left,0.268395374994725,None,3,47,227,19,298.1249339579372,,,,298.1193094579503,298.7151687499136,298.9875955419848,left,0.268395374994725,None,demo2,001,2025-01-26_16h34.42.314,contrast_sensitivity,2024.2.4,None,2025-01-26 16h34.49.717769 -0500,
0.01,1,0.2,228,48,3,right,0.5140605000779033,None,3,48,228,14,298.9984570828965,,,,298.9896662919782,299.58649783290457,300.10420770791825,right,0.5140605000779033,None,demo2,001,2025-01-26_16h34.42.314,contrast_sensitivity,2024.2.4,None,2025-01-26 16h34.49.717769 -0500,
1e-08,-1,0.2,229,49,3,left,0.5548935000551865,None,3,49,229,18,300.1150314579718,,,,300.10616683296394,300.7036188329803,301.26741933298763,left,0.5548935000551865,None,demo2,001,2025-01-26_16h34.42.314,contrast_sensitivity,2024.2.4,None,2025-01-26 16h34.49.717769 -0500,
0.05,-1,0.05,230,50,3,left,0.38427066698204726,None,3,50,230,45,301.27626070799306,,,,301.26938270789105,301.8651516669197,302.25525175000075,left,0.38427066698204726,None,demo2,001,2025-01-26_16h34.42.314,contrast_sensitivity,2024.2.4,None,2025-01-26 16h34.49.717769 -0500,
0.1,1,0.4,231,51,3,right,0.37284033303149045,None,3,51,231,4,302.26403454190586,,,,302.2571926249657,302.8535299169598,303.23346654197667,right,0.37284033303149045,None,demo2,001,2025-01-26_16h34.42.314,contrast_sensitivity,2024.2.4,None,2025-01-26 16h34.49.717769 -0500,
0.1,-1,0.025,232,52,3,right,0.509243292035535,None,3,52,232,58,303.2413850829471,,,,303.2352911249036,303.8321594579611,304.3508192918962,right,0.509243292035535,None,demo2,001,2025-01-26_16h34.42.314,contrast_sensitivity,2024.2.4,None,2025-01-26 16h34.49.717769 -0500,
0.05,1,0.2,233,53,3,right,0.3178045420208946,None,3,53,233,15,304.3595205419697,,,,304.35278033290524,304.94855916698,305.271399041987,right,0.3178045420208946,None,demo2,001,2025-01-26_16h34.42.314,contrast_sensitivity,2024.2.4,None,2025-01-26 16h34.49.717769 -0500,
0.01,-1,0.05,234,54,3,right,0.44598750001750886,None,3,54,234,44,305.2812507499475,,,,305.27329054195434,305.8693409169791,306.31759887491353,right,0.44598750001750886,None,demo2,001,2025-01-26_16h34.42.314,contrast_sensitivity,2024.2.4,None,2025-01-26 16h34.49.717769 -0500,
0.01,-1,0.025,235,55,3,left,0.4342363339383155,None,3,55,235,56,306.32605983293615,,,,306.31952254194766,306.9151410419727,307.355390374898,left,0.4342363339383155,None,demo2,001,2025-01-26_16h34.42.314,contrast_sensitivity,2024.2.4,None,2025-01-26 16h34.49.717769 -0500,
1e-08,-1,0.1,236,56,3,left,0.46456908399704844,None,3,56,236,30,307.3649854999967,,,,307.3572269579163,307.9527746249223,308.4202179579297,left,0.46456908399704844,None,demo2,001,2025-01-26_16h34.42.314,contrast_sensitivity,2024.2.4,None,2025-01-26 16h34.49.717769 -0500,
0.1,1,0.2,237,57,3,right,0.4040995839750394,None,3,57,237,16,308.43176191695966,,,,308.4221008749446,309.01520766690373,309.43345808296,right,0.4040995839750394,None,demo2,001,2025-01-26_16h34.42.314,contrast_sensitivity,2024.2.4,None,2025-01-26 16h34.49.717769 -0500,
0.01,1,0.05,238,58,3,right,0.39855408295989037,None,3,58,238,38,309.4416432919679,,,,309.4353480419377,310.0317377919564,310.43405966693535,right,0.39855408295989037,None,demo2,001,2025-01-26_16h34.42.314,contrast_sensitivity,2024.2.4,None,2025-01-26 16h34.49.717769 -0500,
0.05,-1,0.025,239,59,3,right,0.6743602500064299,None,3,59,239,57,310.44267820799723,,,,310.4361180419801,311.0318429999752,311.7174580419669,right,0.6743602500064299,None,demo2,001,2025-01-26_16h34.42.314,contrast_sensitivity,2024.2.4,None,2025-01-26 16h34.49.717769 -0500,
0.01,1,0.025,240,0,4,left,0.4339199169771746,None,4,0,240,50,311.72608887497336,,,,311.71932624990586,312.31525283295196,312.75443458289374,left,0.4339199169771746,None,demo2,001,2025-01-26_16h34.42.314,contrast_sensitivity,2024.2.4,None,2025-01-26 16h34.49.717769 -0500,
0.1,-1,0.2,241,1,4,left,0.44709120807237923,None,4,1,241,22,312.76490933296736,,,,312.75633895793,313.35411041695625,313.80387116689235,left,0.44709120807237923,None,demo2,001,2025-01-26_16h34.42.314,contrast_sensitivity,2024.2.4,None,2025-01-26 16h34.49.717769 -0500,
0.05,1,0.4,242,2,4,right,0.4816580000333488,None,4,2,242,3,313.81501724990085,,,,313.8057656669989,314.3985066669993,314.88414083293173,right,0.4816580000333488,None,demo2,001,2025-01-26_16h34.42.314,contrast_sensitivity,2024.2.4,None,2025-01-26 16h34.49.717769 -0500,
0.0001,-1,0.025,243,3,4,left,0.6263996250927448,None,4,3,243,55,314.89262854191475,,,,314.886027792003,315.4818647078937,316.11745170794893,left,0.6263996250927448,None,demo2,001,2025-01-26_16h34.42.314,contrast_sensitivity,2024.2.4,None,2025-01-26 16h34.49.717769 -0500,
0.05,-1,0.2,244,4,4,left,0.4168426659889519,None,4,4,244,21,316.12634891690686,,,,316.1200339579955,316.71523112489376,317.1345481669996,left,0.4168426659889519,None,demo2,001,2025-01-26_16h34.42.314,contrast_sensitivity,2024.2.4,None,2025-01-26 16h34.49.717769 -0500,
0.05,1,0.2,245,5,4,right,0.4033198329852894,None,4,5,245,15,317.1428579170024,,,,317.1363589169923,317.7317609169986,318.1372435418889,right,0.4033198329852894,None,demo2,001,2025-01-26_16h34.42.314,contrast_sensitivity,2024.2.4,None,2025-01-26 16h34.49.717769 -0500,
0.1,-1,0.1,246,6,4,left,0.36236566700972617,None,4,6,246,34,318.1483529169345,,,,318.1391043749172,318.7318508749595,319.10058729199227,left,0.36236566700972617,None,demo2,001,2025-01-26_16h34.42.314,contrast_sensitivity,2024.2.4,None,2025-01-26 16h34.49.717769 -0500,
1e-08,-1,0.1,247,7,4,left,0.2804617499932647,None,4,7,247,30,319.1092182499124,,,,319.10264362499584,319.6986982919043,319.9849341668887,left,0.2804617499932647,None,demo2,001,2025-01-26_16h34.42.314,contrast_sensitivity,2024.2.4,None,2025-01-26 16h34.49.717769 -0500,
0.0001,-1,0.4,248,8,4,left,0.2933257919503376,None,4,8,248,7,319.9986336249858,,,,319.98672612488735,320.5818283329718,320.8842694578925,left,0.2933257919503376,None,demo2,001,2025-01-26_16h34.42.314,contrast_sensitivity,2024.2.4,None,2025-01-26 16h34.49.717769 -0500,
1.0,-1,0.05,249,9,4,left,0.28214708296582103,None,4,9,249,47,320.8934783329023,,,,320.88685508293565,321.4818530419143,321.7676693749381,left,0.28214708296582103,None,demo2,001,2025-01-26_16h34.42.314,contrast_sensitivity,2024.2.4,None,2025-01-26 16h34.49.717769 -0500,
1.0,-1,0.2,250,10,4,left,0.3509726250777021,None,4,10,250,23,321.77623504190706,,,,321.7695960829733,322.36500087496825,322.7215584999649,left,0.3509726250777021,None,demo2,001,2025-01-26_16h34.42.314,contrast_sensitivity,2024.2.4,None,2025-01-26 16h34.49.717769 -0500,
1e-08,-1,0.2,251,11,4,right,0.37071437493432313,None,4,11,251,18,322.7316114580026,,,,322.72339158295654,323.3203698329162,323.7008072079625,right,0.37071437493432313,None,demo2,001,2025-01-26_16h34.42.314,contrast_sensitivity,2024.2.4,None,2025-01-26 16h34.49.717769 -0500,
1.0,1,0.4,252,12,4,right,0.22676316706929356,None,4,12,252,5,323.70912016695365,,,,323.70279962499626,324.29832716693636,324.5340716249775,right,0.22676316706929356,None,demo2,001,2025-01-26_16h34.42.314,contrast_sensitivity,2024.2.4,None,2025-01-26 16h34.49.717769 -0500,
0.01,-1,0.05,253,13,4,left,0.24325558298733085,None,4,13,253,44,324.54227962496225,,,,324.5362288749311,325.1318066669628,325.3841530829668,left,0.24325558298733085,None,demo2,001,2025-01-26_16h34.42.314,contrast_sensitivity,2024.2.4,None,2025-01-26 16h34.49.717769 -0500,
0.01,1,0.2,254,14,4,left,0.31612745905295014,None,4,14,254,14,325.39310408290476,,,,325.38633166695945,325.9817824169295,326.3007265419001,left,0.31612745905295014,None,demo2,001,2025-01-26_16h34.42.314,contrast_sensitivity,2024.2.4,None,2025-01-26 16h34.49.717769 -0500,
1.0,1,0.1,255,15,4,right,0.3195195000153035,None,4,15,255,29,326.3095321248984,,,,326.3028002079809,326.89835562498774,327.22126191691495,right,0.3195195000153035,None,demo2,001,2025-01-26_16h34.42.314,contrast_sensitivity,2024.2.4,None,2025-01-26 16h34.49.717769 -0500,
1e-08,-1,0.4,256,16,4,right,0.376867291983217,None,4,16,256,6,327.23172645794693,,,,327.22316433291417,327.8200047079008,328.19986337493174,right,0.376867291983217,None,demo2,001,2025-01-26_16h34.42.314,contrast_sensitivity,2024.2.4,None,2025-01-26 16h34.49.717769 -0500,
0.01,-1,0.4,257,17,4,left,0.33138004096690565,None,4,17,257,8,328.2086225829553,,,,328.20176424994133,328.79843812494073,329.1339103329228,left,0.33138004096690565,None,demo2,001,2025-01-26_16h34.42.314,contrast_sensitivity,2024.2.4,None,2025-01-26 16h34.49.717769 -0500,
1e-08,-1,0.05,258,18,4,left,0.3719658749178052,None,4,18,258,42,329.14310912496876,,,,329.136121874908,329.73180504189804,330.1174627499422,left,0.3719658749178052,None,demo2,001,2025-01-26_16h34.42.314,contrast_sensitivity,2024.2.4,None,2025-01-26 16h34.49.717769 -0500,
0.1,1,0.025,259,19,4,left,0.3407038339646533,None,4,19,259,52,330.1262387499446,,,,330.11936358292587,330.7150408749003,331.06718124996405,left,0.3407038339646533,None,demo2,001,2025-01-26_16h34.42.314,contrast_sensitivity,2024.2.4,None,2025-01-26 16h34.49.717769 -0500,
1e-08,-1,0.025,260,20,4,left,0.35354070900939405,None,4,20,260,54,331.07606249989476,,,,331.06918729189783,331.6651827499736,332.02090866689105,left,0.35354070900939405,None,demo2,001,2025-01-26_16h34.42.314,contrast_sensitivity,2024.2.4,None,2025-01-26 16h34.49.717769 -0500,
1e-08,1,0.2,261,21,4,right,0.47250162495765835,None,4,21,261,12,332.03176870790776,,,,332.0227424579207,332.61522995796986,333.10074666689616,right,0.47250162495765835,None,demo2,001,2025-01-26_16h34.42.314,contrast_sensitivity,2024.2.4,None,2025-01-26 16h34.49.717769 -0500,
0.0001,1,0.2,262,22,4,left,0.3941123749827966,None,4,22,262,13,333.109396749991,,,,333.10290312499274,333.69858187495265,334.1004149579676,left,0.3941123749827966,None,demo2,001,2025-01-26_16h34.42.314,contrast_sensitivity,2024.2.4,None,2025-01-26 16h34.49.717769 -0500,
0.05,-1,0.05,263,23,4,left,0.4219212499447167,None,4,23,263,45,334.10854779195506,,,,334.10236287489533,334.69871124997735,335.133805999998,left,0.4219212499447167,None,demo2,001,2025-01-26_16h34.42.314,contrast_sensitivity,2024.2.4,None,2025-01-26 16h34.49.717769 -0500,
1.0,-1,0.1,264,24,4,left,0.32076925004366785,None,4,24,264,35,335.14273449999746,,,,335.1358359999722,335.7318586669862,336.05439845798537,left,0.32076925004366785,None,demo2,001,2025-01-26_16h34.42.314,contrast_sensitivity,2024.2.4,None,2025-01-26 16h34.49.717769 -0500,
0.05,-1,0.1,265,25,4,left,0.289462500018999,None,4,25,265,33,336.06513179198373,,,,336.05631866690237,336.65321070794016,336.9504312919453,left,0.289462500018999,None,demo2,001,2025-01-26_16h34.42.314,contrast_sensitivity,2024.2.4,None,2025-01-26 16h34.49.717769 -0500,
0.0001,1,0.4,266,26,4,right,0.27372300007846206,None,4,26,266,1,336.95927354192827,,,,336.9524258329766,337.5488754999824,337.83406116697006,right,0.27372300007846206,None,demo2,001,2025-01-26_16h34.42.314,contrast_sensitivity,2024.2.4,None,2025-01-26 16h34.49.717769 -0500,
1e-08,1,0.4,267,27,4,right,0.2778767090057954,None,4,27,267,0,337.842084624921,,,,337.83602545794565,338.43180687492713,338.7174169579521,right,0.2778767090057954,None,demo2,001,2025-01-26_16h34.42.314,contrast_sensitivity,2024.2.4,None,2025-01-26 16h34.49.717769 -0500,
0.0001,1,0.025,268,28,4,right,0.34755616704933345,None,4,28,268,49,338.7260149579961,,,,338.7193981249584,339.3151576669188,339.6672524579335,right,0.34755616704933345,None,demo2,001,2025-01-26_16h34.42.314,contrast_sensitivity,2024.2.4,None,2025-01-26 16h34.49.717769 -0500,
0.01,-1,0.1,269,29,4,right,0.41459854191634804,None,4,29,269,32,339.67610962491017,,,,339.6692146669375,340.2649739999324,340.684101791936,right,0.41459854191634804,None,demo2,001,2025-01-26_16h34.42.314,contrast_sensitivity,2024.2.4,None,2025-01-26 16h34.49.717769 -0500,
0.1,-1,0.4,270,30,4,left,0.33685050008352846,None,4,30,270,10,340.6925458329497,,,,340.68599683290813,341.281680666958,341.6218584999442,left,0.33685050008352846,None,demo2,001,2025-01-26_16h34.42.314,contrast_sensitivity,2024.2.4,None,2025-01-26 16h34.49.717769 -0500,
1.0,1,0.2,271,31,4,right,0.38477516605053097,None,4,31,271,17,341.63069504196756,,,,341.62364629190415,342.2197604579851,342.6172434579348,right,0.38477516605053097,None,demo2,001,2025-01-26_16h34.42.314,contrast_sensitivity,2024.2.4,None,2025-01-26 16h34.49.717769 -0500,
1e-08,1,0.05,272,32,4,right,0.39028004196006805,None,4,32,272,36,342.62593941693194,,,,342.61923504190054,343.215170957963,343.6171248749597,right,0.39028004196006805,None,demo2,001,2025-01-26_16h34.42.314,contrast_sensitivity,2024.2.4,None,2025-01-26 16h34.49.717769 -0500,
0.0001,-1,0.1,273,33,4,left,0.40036550001241267,None,4,33,273,31,343.6259850829374,,,,343.61910358292516,344.2150570829399,344.6174605829874,left,0.40036550001241267,None,demo2,001,2025-01-26_16h34.42.314,contrast_sensitivity,2024.2.4,None,2025-01-26 16h34.49.717769 -0500,
1.0,1,0.025,274,34,4,right,0.38627887493930757,None,4,34,274,53,344.6254534579348,,,,344.61954849993344,345.2151595419273,345.60419370792806,right,0.38627887493930757,None,demo2,001,2025-01-26_16h34.42.314,contrast_sensitivity,2024.2.4,None,2025-01-26 16h34.49.717769 -0500,
0.1,-1,0.05,275,35,4,left,0.3020889170002192,None,4,35,275,46,345.61499633290805,,,,345.6059633329278,346.20333574991673,346.51741566695273,left,0.3020889170002192,None,demo2,001,2025-01-26_16h34.42.314,contrast_sensitivity,2024.2.4,None,2025-01-26 16h34.49.717769 -0500,
0.0001,-1,0.2,276,36,4,left,0.3702846250962466,None,4,36,276,19,346.5261612079339,,,,346.51948204194196,347.1150759169832,347.487648124923,left,0.3702846250962466,None,demo2,001,2025-01-26_16h34.42.314,contrast_sensitivity,2024.2.4,None,2025-01-26 16h34.49.717769 -0500,
0.1,1,0.4,277,37,4,right,0.24955183395650238,None,4,37,277,4,347.49845770793036,,,,347.4894720419543,348.0868100828957,348.3381556669483,right,0.24955183395650238,None,demo2,001,2025-01-26_16h34.42.314,contrast_sensitivity,2024.2.4,None,2025-01-26 16h34.49.717769 -0500,
0.01,-1,0.2,278,38,4,left,0.20110645808745176,None,4,38,278,20,348.34819254197646,,,,348.34038966696244,348.936278082896,349.15013833297417,left,0.20110645808745176,None,demo2,001,2025-01-26_16h34.42.314,contrast_sensitivity,2024.2.4,None,2025-01-26 16h34.49.717769 -0500,
0.1,-1,0.025,279,39,4,left,0.3849866249365732,None,4,39,279,58,349.1584043329349,,,,349.15197037498,349.7483362079365,350.1367527919356,left,0.3849866249365732,None,demo2,001,2025-01-26_16h34.42.314,contrast_sensitivity,2024.2.4,None,2025-01-26 16h34.49.717769 -0500,
0.0001,-1,0.05,280,40,4,right,0.37244941701646894,None,4,40,280,43,350.1484182080021,,,,350.13865266693756,350.7318458749214,351.11770133289974,right,0.37244941701646894,None,demo2,001,2025-01-26_16h34.42.314,contrast_sensitivity,2024.2.4,None,2025-01-26 16h34.49.717769 -0500,
1.0,-1,0.025,281,41,4,left,0.406169084017165,None,4,41,281,59,351.1262128748931,,,,351.1196027499391,351.7150829168968,352.13415395794436,left,0.406169084017165,None,demo2,001,2025-01-26_16h34.42.314,contrast_sensitivity,2024.2.4,None,2025-01-26 16h34.49.717769 -0500,
0.1,1,0.05,282,42,4,right,0.3053262500325218,None,4,42,282,40,352.14280854188837,,,,352.13633454195224,352.73188029194716,353.0502180419862,right,0.3053262500325218,None,demo2,001,2025-01-26_16h34.42.314,contrast_sensitivity,2024.2.4,None,2025-01-26 16h34.49.717769 -0500,
0.05,1,0.1,283,43,4,right,0.25579179101623595,None,4,43,283,27,353.0584568749182,,,,353.05212945793755,353.6484411669662,353.9175366249401,right,0.25579179101623595,None,demo2,001,2025-01-26_16h34.42.314,contrast_sensitivity,2024.2.4,None,2025-01-26 16h34.49.717769 -0500,
0.1,1,0.2,284,44,4,right,0.3320828750729561,None,4,44,284,16,353.9259241669206,,,,353.9195155829657,354.5151447079843,354.850730832899,right,0.3320828750729561,None,demo2,001,2025-01-26_16h34.42.314,contrast_sensitivity,2024.2.4,None,2025-01-26 16h34.49.717769 -0500,
0.01,1,0.05,285,45,4,right,0.461859125061892,None,4,45,285,38,354.8594884169288,,,,354.8527238329407,355.44864308298565,355.9175502079306,right,0.461859125061892,None,demo2,001,2025-01-26_16h34.42.314,contrast_sensitivity,2024.2.4,None,2025-01-26 16h34.49.717769 -0500,
1.0,1,0.05,286,46,4,right,0.31304770801216364,None,4,46,286,41,355.92657462495845,,,,355.9197085829219,356.51511916692834,356.83408658299595,right,0.31304770801216364,None,demo2,001,2025-01-26_16h34.42.314,contrast_sensitivity,2024.2.4,None,2025-01-26 16h34.49.717769 -0500,
0.01,1,0.4,287,47,4,left,0.4454898330150172,None,4,47,287,2,356.84263458289206,,,,356.8360190829262,357.4317791669164,357.8842948329402,left,0.4454898330150172,None,demo2,001,2025-01-26_16h34.42.314,contrast_sensitivity,2024.2.4,None,2025-01-26 16h34.49.717769 -0500,
0.05,-1,0.4,288,48,4,left,0.4881177080096677,None,4,48,288,9,357.8917323749047,,,,357.88629591697827,358.48191754193977,358.9830876669148,left,0.4881177080096677,None,demo2,001,2025-01-26_16h34.42.314,contrast_sensitivity,2024.2.4,None,2025-01-26 16h34.49.717769 -0500,
1e-08,1,0.1,289,49,4,left,0.46519775001797825,None,4,49,289,24,358.9908402079018,,,,358.9847176669864,359.581885957974,360.05138770793565,left,0.46519775001797825,None,demo2,001,2025-01-26_16h34.42.314,contrast_sensitivity,2024.2.4,None,2025-01-26 16h34.49.717769 -0500,
0.01,1,0.1,290,50,4,right,0.9117199589964002,None,4,50,290,26,360.05988870793954,,,,360.05333137488924,360.64846233290154,361.5673574579414,right,0.9117199589964002,None,demo2,001,2025-01-26_16h34.42.314,contrast_sensitivity,2024.2.4,None,2025-01-26 16h34.49.717769 -0500,
0.01,-1,0.025,291,51,4,left,0.6238458750303835,None,4,51,291,56,361.5763126249658,,,,361.56960737495683,362.1651372920023,362.8008354170015,left,0.6238458750303835,None,demo2,001,2025-01-26_16h34.42.314,contrast_sensitivity,2024.2.4,None,2025-01-26 16h34.49.717769 -0500,
1.0,-1,0.4,292,52,4,left,0.5444688749266788,None,4,52,292,11,362.80959629197605,,,,362.80291924998164,363.3985207079677,363.95162137493026,left,0.5444688749266788,None,demo2,001,2025-01-26_16h34.42.314,contrast_sensitivity,2024.2.4,None,2025-01-26 16h34.49.717769 -0500,
0.1,1,0.1,293,53,4,right,0.574699959019199,None,4,53,293,28,363.9651714579668,,,,363.95352637500037,364.548337749904,365.1339418749558,right,0.574699959019199,None,demo2,001,2025-01-26_16h34.42.314,contrast_sensitivity,2024.2.4,None,2025-01-26 16h34.49.717769 -0500,
0.05,1,0.025,294,54,4,left,0.5731477090157568,None,4,54,294,51,365.1425902498886,,,,365.13600012497045,365.7318332499126,366.31735612498596,left,0.5731477090157568,None,demo2,001,2025-01-26_16h34.42.314,contrast_sensitivity,2024.2.4,None,2025-01-26 16h34.49.717769 -0500,
0.0001,1,0.1,295,55,4,left,0.6269359999569133,None,4,55,295,25,366.32525591691956,,,,366.3193393329857,366.9151194168953,367.55036704195663,left,0.6269359999569133,None,demo2,001,2025-01-26_16h34.42.314,contrast_sensitivity,2024.2.4,None,2025-01-26 16h34.49.717769 -0500,
0.0001,1,0.05,296,56,4,right,0.6306022079661489,None,4,56,296,37,367.559429291985,,,,367.5525193749927,368.1484573748894,368.7836710829288,right,0.6306022079661489,None,demo2,001,2025-01-26_16h34.42.314,contrast_sensitivity,2024.2.4,None,2025-01-26 16h34.49.717769 -0500,
1e-08,1,0.025,297,57,4,left,0.49418620800133795,None,4,57,297,48,368.79254958289675,,,,368.7857250829693,369.3817974999547,369.88350329198875,left,0.49418620800133795,None,demo2,001,2025-01-26_16h34.42.314,contrast_sensitivity,2024.2.4,None,2025-01-26 16h34.49.717769 -0500,
0.05,-1,0.025,298,58,4,left,0.40136933303438127,None,4,58,298,57,369.8922446669312,,,,369.885586499935,370.4814213749487,370.8876404579496,left,0.40136933303438127,None,demo2,001,2025-01-26_16h34.42.314,contrast_sensitivity,2024.2.4,None,2025-01-26 16h34.49.717769 -0500,
0.05,1,0.05,299,59,4,right,0.4631016670027748,None,4,59,299,39,370.89826308295596,,,,370.88972208299674,371.48173399991356,371.95126804197207,right,0.4631016670027748,None,demo2,001,2025-01-26_16h34.42.314,contrast_sensitivity,2024.2.4,None,2025-01-26 16h34.49.717769 -0500,
1.0,-1,0.4,300,0,5,left,0.45128479204140604,None,5,0,300,11,371.95959874999244,,,,371.9531334579224,372.5484637079062,373.0047360419994,left,0.45128479204140604,None,demo2,001,2025-01-26_16h34.42.314,contrast_sensitivity,2024.2.4,None,2025-01-26 16h34.49.717769 -0500,
1.0,1,0.4,301,1,5,right,0.4128185830777511,None,5,1,301,5,373.014970291988,,,,373.00676283298526,373.6030019999016,374.02123229193967,right,0.4128185830777511,None,demo2,001,2025-01-26_16h34.42.314,contrast_sensitivity,2024.2.4,None,2025-01-26 16h34.49.717769 -0500,
0.1,1,0.1,302,2,5,right,0.3774296250194311,None,5,2,302,28,374.03171299991664,,,,374.0232074169908,374.61934195796493,375.00039533292875,right,0.3774296250194311,None,demo2,001,2025-01-26_16h34.42.314,contrast_sensitivity,2024.2.4,None,2025-01-26 16h34.49.717769 -0500,
0.01,1,0.2,303,3,5,right,0.19539429200813174,None,5,3,303,14,375.0090959169902,,,,375.0023615419632,375.5984664579155,375.8006968749687,right,0.19539429200813174,None,demo2,001,2025-01-26_16h34.42.314,contrast_sensitivity,2024.2.4,None,2025-01-26 16h34.49.717769 -0500,
0.1,-1,0.4,304,4,5,left,0.29229741590097547,None,5,4,304,10,375.80945749999955,,,,375.80322012491524,376.39850529190153,376.7015602919273,left,0.29229741590097547,None,demo2,001,2025-01-26_16h34.42.314,contrast_sensitivity,2024.2.4,None,2025-01-26 16h34.49.717769 -0500,
0.1,-1,0.1,305,5,5,left,0.26029870798811316,None,5,5,305,34,376.7154599579517,,,,376.7034704579273,377.29853733291384,377.5666485829279,left,0.26029870798811316,None,demo2,001,2025-01-26_16h34.42.314,contrast_sensitivity,2024.2.4,None,2025-01-26 16h34.49.717769 -0500,
0.05,-1,0.4,306,6,5,left,0.3777193749556318,None,5,6,306,9,377.57498049992137,,,,377.56863491691183,378.16503291693516,378.55069429194555,left,0.3777193749556318,None,demo2,001,2025-01-26_16h34.42.314,contrast_sensitivity,2024.2.4,None,2025-01-26 16h34.49.717769 -0500,
0.05,1,0.1,307,7,5,right,0.2708174999570474,None,5,7,307,27,378.5593848749995,,,,378.55277958291117,379.14873316697776,379.42099095799495,right,0.2708174999570474,None,demo2,001,2025-01-26_16h34.42.314,contrast_sensitivity,2024.2.4,None,2025-01-26 16h34.49.717769 -0500,
1e-08,1,0.2,308,8,5,left,0.27997779194265604,None,5,8,308,12,379.4318531668978,,,,379.4230482499115,380.01961387495976,380.30456595798023,left,0.27997779194265604,None,demo2,001,2025-01-26_16h34.42.314,contrast_sensitivity,2024.2.4,None,2025-01-26 16h34.49.717769 -0500,
0.1,1,0.05,309,9,5,right,0.20198358304332942,None,5,9,309,40,380.3149909169879,,,,380.3063833329361,380.9026170419529,381.1175664999755,right,0.20198358304332942,None,demo2,001,2025-01-26_16h34.42.314,contrast_sensitivity,2024.2.4,None,2025-01-26 16h34.49.717769 -0500,
0.0001,1,0.025,310,10,5,right,0.16296741703990847,None,5,10,310,49,381.12597745796666,,,,381.11977195797954,381.7150957499398,381.8841564169852,right,0.16296741703990847,None,demo2,001,2025-01-26_16h34.42.314,contrast_sensitivity,2024.2.4,None,2025-01-26 16h34.49.717769 -0500,
0.05,-1,0.05,311,11,5,left,0.5237319589359686,None,5,11,311,45,381.892638332909,,,,381.88613070792053,382.48178237490356,383.01738379197195,left,0.5237319589359686,None,demo2,001,2025-01-26_16h34.42.314,contrast_sensitivity,2024.2.4,None,2025-01-26 16h34.49.717769 -0500,
0.05,1,0.2,312,12,5,right,0.29546858405228704,None,5,12,312,15,383.0259328329703,,,,383.0193206249969,383.61517695791554,383.9168298749719,right,0.29546858405228704,None,demo2,001,2025-01-26_16h34.42.314,contrast_sensitivity,2024.2.4,None,2025-01-26 16h34.49.717769 -0500,
1.0,1,0.1,313,13,5,right,0.25043883302714676,None,5,13,313,29,383.92562687490135,,,,383.91881262499373,384.51503304194193,384.77058004192077,right,0.25043883302714676,None,demo2,001,2025-01-26_16h34.42.314,contrast_sensitivity,2024.2.4,None,2025-01-26 16h34.49.717769 -0500,
0.1,-1,0.05,314,14,5,left,0.3159727919846773,None,5,14,314,46,384.78141549997963,,,,384.772348916973,385.369482332957,385.68683624989353,left,0.3159727919846773,None,demo2,001,2025-01-26_16h34.42.314,contrast_sensitivity,2024.2.4,None,2025-01-26 16h34.49.717769 -0500,
0.0001,-1,0.1,315,15,5,left,0.2086289169965312,None,5,15,315,31,385.6982484579785,,,,385.6887624579249,386.28190966695547,386.50031145790126,left,0.2086289169965312,None,demo2,001,2025-01-26_16h34.42.314,contrast_sensitivity,2024.2.4,None,2025-01-26 16h34.49.717769 -0500,
0.1,-1,0.2,316,16,5,left,0.3700185000197962,None,5,16,316,22,386.50928333296906,,,,386.5023459169315,387.0984207500005,387.4707638329128,left,0.3700185000197962,None,demo2,001,2025-01-26_16h34.42.314,contrast_sensitivity,2024.2.4,None,2025-01-26 16h34.49.717769 -0500,
1.0,-1,0.05,317,17,5,left,0.3517670000437647,None,5,17,317,47,387.48178020794876,,,,387.4727792919148,388.06968816695735,388.433620374999,left,0.3517670000437647,None,demo2,001,2025-01-26_16h34.42.314,contrast_sensitivity,2024.2.4,None,2025-01-26 16h34.49.717769 -0500,
0.05,1,0.4,318,18,5,right,0.2156922499416396,None,5,18,318,3,388.4426693749847,,,,388.4357084999792,389.03170358296484,389.25088774994947,right,0.2156922499416396,None,demo2,001,2025-01-26_16h34.42.314,contrast_sensitivity,2024.2.4,None,2025-01-26 16h34.49.717769 -0500,
0.01,-1,0.2,319,19,5,right,0.2999340830137953,None,5,19,319,20,389.25951274996623,,,,389.25307029194664,389.8483969999943,390.15063379192725,right,0.2999340830137953,None,demo2,001,2025-01-26_16h34.42.314,contrast_sensitivity,2024.2.4,None,2025-01-26 16h34.49.717769 -0500,
0.01,1,0.025,320,20,5,left,0.3111564579885453,None,5,20,320,50,390.15909158298746,,,,390.1525986249326,390.74818658293225,391.0675825419603,left,0.3111564579885453,None,demo2,001,2025-01-26_16h34.42.314,contrast_sensitivity,2024.2.4,None,2025-01-26 16h34.49.717769 -0500,
1e-08,-1,0.025,321,21,5,right,0.3143065409967676,None,5,21,321,54,391.0761704168981,,,,391.06954337493517,391.66515824990347,391.98409454198554,right,0.3143065409967676,None,demo2,001,2025-01-26_16h34.42.314,contrast_sensitivity,2024.2.4,None,2025-01-26 16h34.49.717769 -0500,
0.05,-1,0.1,322,22,5,left,0.49047504097688943,None,5,22,322,33,391.9926882078871,,,,391.9860331249656,392.5817891249899,393.08351866691373,left,0.49047504097688943,None,demo2,001,2025-01-26_16h34.42.314,contrast_sensitivity,2024.2.4,None,2025-01-26 16h34.49.717769 -0500,
0.1,1,0.2,323,23,5,right,0.39347770798485726,None,5,23,323,16,393.092267,,,,393.0857554168906,393.6818152499618,394.08577779191546,right,0.39347770798485726,None,demo2,001,2025-01-26_16h34.42.314,contrast_sensitivity,2024.2.4,None,2025-01-26 16h34.49.717769 -0500,
1e-08,-1,0.1,324,24,5,left,0.31729145802091807,None,5,24,324,30,394.0987091669813,,,,394.0879075418925,394.6819150419906,395.0043686669087,left,0.31729145802091807,None,demo2,001,2025-01-26_16h34.42.314,contrast_sensitivity,2024.2.4,None,2025-01-26 16h34.49.717769 -0500,
0.1,-1,0.025,325,25,5,left,0.4020754999946803,None,5,25,325,58,395.0150592919672,,,,395.00632241694257,395.6031447079731,396.01677295798436,left,0.4020754999946803,None,demo2,001,2025-01-26_16h34.42.314,contrast_sensitivity,2024.2.4,None,2025-01-26 16h34.49.717769 -0500,
1.0,1,0.05,326,26,5,right,0.40394975000526756,None,5,26,326,41,396.02565970795695,,,,396.0187849999638,396.6152056249557,397.020864082966,right,0.40394975000526756,None,demo2,001,2025-01-26_16h34.42.314,contrast_sensitivity,2024.2.4,None,2025-01-26 16h34.49.717769 -0500,
0.1,1,0.025,327,27,5,right,0.35839745798148215,None,5,27,327,52,397.0318488329649,,,,397.0227354579838,397.61996779195033,397.9836811668938,right,0.35839745798148215,None,demo2,001,2025-01-26_16h34.42.314,contrast_sensitivity,2024.2.4,None,2025-01-26 16h34.49.717769 -0500,
1e-08,-1,0.4,328,28,5,right,0.3644110409077257,None,5,28,328,6,397.99154045793694,,,,397.9854297079146,398.58175570797175,398.9510983329965,right,0.3644110409077257,None,demo2,001,2025-01-26_16h34.42.314,contrast_sensitivity,2024.2.4,None,2025-01-26 16h34.49.717769 -0500,
0.01,-1,0.05,329,29,5,right,0.7376196250552312,None,5,29,329,44,398.95962183293886,,,,398.9529187500011,399.5484724579146,400.28774116688874,right,0.7376196250552312,None,demo2,001,2025-01-26_16h34.42.314,contrast_sensitivity,2024.2.4,None,2025-01-26 16h34.49.717769 -0500,
1e-08,1,0.025,330,30,5,left,0.39965316595043987,None,5,30,330,48,400.2982452498982,,,,400.2896334999241,400.88644129189197,401.2876854579663,left,0.39965316595043987,None,demo2,001,2025-01-26_16h34.42.314,contrast_sensitivity,2024.2.4,None,2025-01-26 16h34.49.717769 -0500,
1.0,-1,0.025,331,31,5,left,0.43148579203989357,None,5,31,331,59,401.2983756669564,,,,401.2896869169781,401.88662749994546,402.3209311669925,left,0.43148579203989357,None,demo2,001,2025-01-26_16h34.42.314,contrast_sensitivity,2024.2.4,None,2025-01-26 16h34.49.717769 -0500,
0.05,1,0.05,332,32,5,right,0.46088620799127966,None,5,32,332,39,402.3316223329166,,,,402.32285291689914,402.91920254193246,403.38411137496587,right,0.46088620799127966,None,demo2,001,2025-01-26_16h34.42.314,contrast_sensitivity,2024.2.4,None,2025-01-26 16h34.49.717769 -0500,
1e-08,1,0.1,333,33,5,right,0.4420890000183135,None,5,33,333,24,403.3935219999403,,,,403.3867497500032,403.9809219999006,404.43409045797307,right,0.4420890000183135,None,demo2,001,2025-01-26_16h34.42.314,contrast_sensitivity,2024.2.4,None,2025-01-26 16h34.49.717769 -0500,
0.0001,1,0.2,334,34,5,right,0.44528470805380493,None,5,34,334,13,404.44294454192277,,,,404.4361552919727,405.0318467919715,405.4840974579565,right,0.44528470805380493,None,demo2,001,2025-01-26_16h34.42.314,contrast_sensitivity,2024.2.4,None,2025-01-26 16h34.49.717769 -0500,
1e-08,-1,0.05,335,35,5,right,1.1341535000829026,None,5,35,335,42,405.4927252919879,,,,405.48607720795553,406.0817722919164,407.2211597498972,right,1.1341535000829026,None,demo2,001,2025-01-26_16h34.42.314,contrast_sensitivity,2024.2.4,None,2025-01-26 16h34.49.717769 -0500,
1.0,1,0.025,336,36,5,right,0.30104629090055823,None,5,36,336,53,407.23163483291864,,,,407.22315458289813,407.81991991691757,408.1341452919878,right,0.30104629090055823,None,demo2,001,2025-01-26_16h34.42.314,contrast_sensitivity,2024.2.4,None,2025-01-26 16h34.49.717769 -0500,
0.0001,-1,0.025,337,37,5,right,0.3120403749635443,None,5,37,337,55,408.1435241668951,,,,408.1370628749719,408.73187349992804,409.05085104191676,right,0.3120403749635443,None,demo2,001,2025-01-26_16h34.42.314,contrast_sensitivity,2024.2.4,None,2025-01-26 16h34.49.717769 -0500,
0.05,-1,0.2,338,38,5,left,0.2864002089481801,None,5,38,338,21,409.0596407079138,,,,409.0528635419905,409.648509291932,409.93856020795647,left,0.2864002089481801,None,demo2,001,2025-01-26_16h34.42.314,contrast_sensitivity,2024.2.4,None,2025-01-26 16h34.49.717769 -0500,
0.01,1,0.05,339,39,5,left,0.37774174998048693,None,5,39,339,38,409.9470936249709,,,,409.94070308294613,410.53620649990626,410.9167999998899,left,0.37774174998048693,None,demo2,001,2025-01-26_16h34.42.314,contrast_sensitivity,2024.2.4,None,2025-01-26 16h34.49.717769 -0500,
0.05,1,0.025,340,40,5,left,0.5404316249769181,None,5,40,340,51,410.9244381249882,,,,410.9186313749524,411.5153698748909,412.06743812491186,left,0.5404316249769181,None,demo2,001,2025-01-26_16h34.42.314,contrast_sensitivity,2024.2.4,None,2025-01-26 16h34.49.717769 -0500,
1.0,1,0.2,341,41,5,right,0.35059325001202524,None,5,41,341,17,412.07583345798776,,,,412.0692937079584,412.6651706669945,413.0212171669118,right,0.35059325001202524,None,demo2,001,2025-01-26_16h34.42.314,contrast_sensitivity,2024.2.4,None,2025-01-26 16h34.49.717769 -0500,
0.0001,1,0.05,342,42,5,right,0.3910926249809563,None,5,42,342,37,413.03172995790374,,,,413.0232118329732,413.6198395419633,414.01772970799357,right,0.3910926249809563,None,demo2,001,2025-01-26_16h34.42.314,contrast_sensitivity,2024.2.4,None,2025-01-26 16h34.49.717769 -0500,
0.0001,-1,0.05,343,43,5,right,0.48663291695993394,None,5,43,343,43,414.03190187492874,,,,414.0197929169517,414.6151252499549,415.10447929194197,right,0.48663291695993394,None,demo2,001,2025-01-26_16h34.42.314,contrast_sensitivity,2024.2.4,None,2025-01-26 16h34.49.717769 -0500,
0.0001,-1,0.2,344,44,5,left,0.5281334170140326,None,5,44,344,19,415.11501612490974,,,,415.10644937492907,415.70267095789313,416.23415049992036,left,0.5281334170140326,None,demo2,001,2025-01-26_16h34.42.314,contrast_sensitivity,2024.2.4,None,2025-01-26 16h34.49.717769 -0500,
0.0001,-1,0.4,345,45,5,right,0.388930540997535,None,5,45,345,7,416.24372408294585,,,,416.2371291669551,416.83174245792907,417.2330079169478,right,0.388930540997535,None,demo2,001,2025-01-26_16h34.42.314,contrast_sensitivity,2024.2.4,None,2025-01-26 16h34.49.717769 -0500,
0.01,1,0.1,346,46,5,right,0.5129209579899907,None,5,46,346,26,417.238229499897,,,,417.2343602919718,417.83177308295853,418.3504449999891,right,0.5129209579899907,None,demo2,001,2025-01-26_16h34.42.314,contrast_sensitivity,2024.2.4,None,2025-01-26 16h34.49.717769 -0500,
1e-08,1,0.05,347,47,5,right,0.4222196659538895,None,5,47,347,36,418.35844645788893,,,,418.3523005419411,418.9484442919493,419.3851288749138,right,0.4222196659538895,None,demo2,001,2025-01-26_16h34.42.314,contrast_sensitivity,2024.2.4,None,2025-01-26 16h34.49.717769 -0500,
0.0001,1,0.1,348,48,5,right,0.4658538339426741,None,5,48,348,25,419.3926981249824,,,,419.38712612492964,419.98178524989635,420.450696874992,right,0.4658538339426741,None,demo2,001,2025-01-26_16h34.42.314,contrast_sensitivity,2024.2.4,None,2025-01-26 16h34.49.717769 -0500,
1e-08,-1,0.2,349,49,5,right,0.5604231250472367,None,5,49,349,18,420.45927670795936,,,,420.4525651249569,421.0483402078971,421.61730062495917,right,0.5604231250472367,None,demo2,001,2025-01-26_16h34.42.314,contrast_sensitivity,2024.2.4,None,2025-01-26 16h34.49.717769 -0500,
1e-08,1,0.4,350,50,5,right,0.5495774999726564,None,5,50,350,0,421.6259522920009,,,,421.6192615829641,422.2150027079042,422.76665758294985,right,0.5495774999726564,None,demo2,001,2025-01-26_16h34.42.314,contrast_sensitivity,2024.2.4,None,2025-01-26 16h34.49.717769 -0500,
0.01,1,0.4,351,51,5,right,0.44554270792286843,None,5,51,351,2,422.7750634578988,,,,422.7685472499579,423.3651179999579,423.8168990419945,right,0.44554270792286843,None,demo2,001,2025-01-26_16h34.42.314,contrast_sensitivity,2024.2.4,None,2025-01-26 16h34.49.717769 -0500,
0.01,-1,0.025,352,52,5,left,0.5116147500229999,None,5,52,352,56,423.82469483290333,,,,423.8189395419322,424.41500654199626,424.9338157499442,left,0.5116147500229999,None,demo2,001,2025-01-26_16h34.42.314,contrast_sensitivity,2024.2.4,None,2025-01-26 16h34.49.717769 -0500,
0.01,-1,0.4,353,53,5,left,0.6506551660131663,None,5,53,353,8,424.9425506249536,,,,424.93586116691586,425.5318232079735,426.1874494169606,left,0.6506551660131663,None,demo2,001,2025-01-26_16h34.42.314,contrast_sensitivity,2024.2.4,None,2025-01-26 16h34.49.717769 -0500,
1.0,-1,0.2,354,54,5,left,0.629513958003372,None,5,54,354,23,426.19838333292864,,,,426.1893872919027,426.785981874913,427.4210413749097,left,0.629513958003372,None,demo2,001,2025-01-26_16h34.42.314,contrast_sensitivity,2024.2.4,None,2025-01-26 16h34.49.717769 -0500,
0.1,1,0.4,355,55,5,right,0.3870179579826072,None,5,55,355,4,427.43174429191276,,,,427.42310754198115,428.0153844169108,428.4175053749932,right,0.3870179579826072,None,demo2,001,2025-01-26_16h34.42.314,contrast_sensitivity,2024.2.4,None,2025-01-26 16h34.49.717769 -0500,
0.01,-1,0.1,356,56,5,right,0.4033113750629127,None,5,56,356,32,428.4261455829255,,,,428.4194425829919,429.01507754193153,429.4211076248903,right,0.4033113750629127,None,demo2,001,2025-01-26_16h34.42.314,contrast_sensitivity,2024.2.4,None,2025-01-26 16h34.49.717769 -0500,
1.0,-1,0.1,357,57,5,left,0.421340583008714,None,5,57,357,35,429.4316976669943,,,,429.4230129579082,430.01922466699034,430.4503503328888,left,0.421340583008714,None,demo2,001,2025-01-26_16h34.42.314,contrast_sensitivity,2024.2.4,None,2025-01-26 16h34.49.717769 -0500,
0.0001,1,0.4,358,58,5,right,0.41491333406884223,None,5,58,358,1,430.4589138329029,,,,430.45256041688845,431.04846862494014,431.4673877499299,right,0.41491333406884223,None,demo2,001,2025-01-26_16h34.42.314,contrast_sensitivity,2024.2.4,None,2025-01-26 16h34.49.717769 -0500,
0.05,-1,0.025,359,59,5,right,0.670345582999289,None,5,59,359,57,431.4762771669775,,,,431.46934691700153,432.06498533289414,432.7374370829202,right,0.670345582999289,None,demo2,001,2025-01-26_16h34.42.314,contrast_sensitivity,2024.2.4,None,2025-01-26 16h34.49.717769 -0500,
