contrast,location,size,thisN,thisTrialN,thisRepN,response.keys,response.rt,response.duration,trials.thisRepN,trials.thisTrialN,trials.thisN,trials.thisIndex,thisRow.t,notes,begin_experiment.started,begin_experiment.stopped,trial.started,response.started,trial.stopped,trials.response.keys,trials.response.rt,trials.response.duration,participant,session,date,expName,psychopyVersion,frameRate,expStart,
,,,,,,,,,,,,,,,0.006950999959371984,1.8971661659888923,,,,,,,demo2,001,2025-01-26_16h43.44.651,contrast_sensitivity,2024.2.4,None,2025-01-26 16h43.52.942056 -0500,
0.05,-1,0.2,0,0,0,left,0.6113374580163509,None,0,0,0,21,1.909531707991846,,,,1.9036307909991592,2.5076001660199836,3.1261665410129353,left,0.6113374580163509,None,demo2,001,2025-01-26_16h43.44.651,contrast_sensitivity,2024.2.4,None,2025-01-26 16h43.52.942056 -0500,
0.0001,-1,0.2,1,1,0,left,0.47288362495601177,None,0,1,1,19,3.1342865409096703,,,,3.1279337909072638,3.7239241249626502,4.208712124964222,left,0.47288362495601177,None,demo2,001,2025-01-26_16h43.44.651,contrast_sensitivity,2024.2.4,None,2025-01-26 16h43.52.942056 -0500,
0.0001,-1,0.4,2,2,0,left,0.3896062499843538,None,0,2,2,7,4.222076207981445,,,,4.210278832935728,4.807213332969695,5.2088778329780325,left,0.3896062499843538,None,demo2,001,2025-01-26_16h43.44.651,contrast_sensitivity,2024.2.4,None,2025-01-26 16h43.52.942056 -0500,
1e-08,1,0.05,3,3,0,right,0.33442912506870925,None,0,3,3,36,5.21741216594819,,,,5.210739166010171,5.807345749926753,6.146086999913678,right,0.33442912506870925,None,demo2,001,2025-01-26_16h43.44.651,contrast_sensitivity,2024.2.4,None,2025-01-26 16h43.52.942056 -0500,
1e-08,-1,0.1,4,4,0,left,0.36511012504342943,None,0,4,4,30,6.157084665959701,,,,6.1480682080145925,6.744617749936879,7.11072366591543,left,0.36511012504342943,None,demo2,001,2025-01-26_16h43.44.651,contrast_sensitivity,2024.2.4,None,2025-01-26 16h43.52.942056 -0500,
1.0,-1,0.4,5,5,0,left,0.3775648749433458,None,0,5,5,11,7.123541833017953,,,,7.112027416005731,7.707254624925554,8.092842915910296,left,0.3775648749433458,None,demo2,001,2025-01-26_16h43.44.651,contrast_sensitivity,2024.2.4,None,2025-01-26 16h43.52.942056 -0500,
0.05,1,0.025,6,6,0,left,0.42932487500365824,None,0,6,6,51,8.101606208016165,,,,8.094704415998422,8.690495582995936,9.125452540931292,left,0.42932487500365824,None,demo2,001,2025-01-26_16h43.44.651,contrast_sensitivity,2024.2.4,None,2025-01-26 16h43.52.942056 -0500,
0.1,-1,0.1,7,7,0,left,0.4158788750646636,None,0,7,7,34,9.13400791597087,,,,9.127241750014946,9.72379550000187,10.142801665933803,left,0.4158788750646636,None,demo2,001,2025-01-26_16h43.44.651,contrast_sensitivity,2024.2.4,None,2025-01-26 16h43.52.942056 -0500,
1e-08,-1,0.4,8,8,0,right,0.3171523750061169,None,0,8,8,6,10.15140045795124,,,,10.144912375020795,10.74045899999328,11.064343665959314,right,0.3171523750061169,None,demo2,001,2025-01-26_16h43.44.651,contrast_sensitivity,2024.2.4,None,2025-01-26 16h43.52.942056 -0500,
0.0001,1,0.025,9,9,0,left,0.3856926669832319,None,0,9,9,49,11.073091040947475,,,,11.066253790981136,11.660906457924284,12.058954915963113,left,0.3856926669832319,None,demo2,001,2025-01-26_16h43.44.651,contrast_sensitivity,2024.2.4,None,2025-01-26 16h43.52.942056 -0500,
1e-08,-1,0.025,10,10,0,right,0.5416528331115842,None,0,10,10,54,12.067870541010052,,,,12.061167374951765,12.657035290962085,13.20918120793067,right,0.5416528331115842,None,demo2,001,2025-01-26_16h43.44.651,contrast_sensitivity,2024.2.4,None,2025-01-26 16h43.52.942056 -0500,
0.1,1,0.1,11,11,0,right,0.30016466591041535,None,0,11,11,28,13.217875291011296,,,,13.211373999947682,13.807298499974422,14.113347957958467,right,0.30016466591041535,None,demo2,001,2025-01-26_16h43.44.651,contrast_sensitivity,2024.2.4,None,2025-01-26 16h43.52.942056 -0500,
0.1,1,0.025,12,12,0,left,0.36328883294481784,None,0,12,12,52,14.1238464579219,,,,14.11532958294265,14.711256957962178,15.079956125002354,left,0.36328883294481784,None,demo2,001,2025-01-26_16h43.44.651,contrast_sensitivity,2024.2.4,None,2025-01-26 16h43.52.942056 -0500,
0.0001,-1,0.025,13,13,0,right,0.48220212501473725,None,0,13,13,55,15.090448083006777,,,,15.08186133299023,15.678329124930315,16.16303854098078,right,0.48220212501473725,None,demo2,001,2025-01-26_16h43.44.651,contrast_sensitivity,2024.2.4,None,2025-01-26 16h43.52.942056 -0500,
0.1,-1,0.2,14,14,0,left,0.4113531250040978,None,0,14,14,22,16.1738197079394,,,,16.165146790910512,16.761197665939108,17.176092499983497,left,0.4113531250040978,None,demo2,001,2025-01-26_16h43.44.651,contrast_sensitivity,2024.2.4,None,2025-01-26 16h43.52.942056 -0500,
1e-08,1,0.4,15,15,0,right,0.5020663749892265,None,0,15,15,0,17.184468082967214,,,,17.177854000008665,17.773767499951646,18.279186374973506,right,0.5020663749892265,None,demo2,001,2025-01-26_16h43.44.651,contrast_sensitivity,2024.2.4,None,2025-01-26 16h43.52.942056 -0500,
0.01,1,0.4,16,16,0,right,0.341422958066687,None,0,16,16,2,18.29033058299683,,,,18.281174832955003,18.878045332967304,19.22543212492019,right,0.341422958066687,None,demo2,001,2025-01-26_16h43.44.651,contrast_sensitivity,2024.2.4,None,2025-01-26 16h43.52.942056 -0500,
1.0,1,0.05,17,17,0,right,0.39248329191468656,None,0,17,17,41,19.234166290960275,,,,19.227524665999226,19.824055665987544,20.22548820800148,right,0.39248329191468656,None,demo2,001,2025-01-26_16h43.44.651,contrast_sensitivity,2024.2.4,None,2025-01-26 16h43.52.942056 -0500,
0.1,-1,0.05,18,18,0,left,0.36893816699739546,None,0,18,18,46,20.233790999976918,,,,20.227468832978047,20.823621874907985,21.196107874973677,left,0.36893816699739546,None,demo2,001,2025-01-26_16h43.44.651,contrast_sensitivity,2024.2.4,None,2025-01-26 16h43.52.942056 -0500,
0.1,1,0.05,19,19,0,right,0.2597290830453858,None,0,19,19,40,21.206951790954918,,,,21.197544374968857,21.79479808290489,22.059229583013803,right,0.2597290830453858,None,demo2,001,2025-01-26_16h43.44.651,contrast_sensitivity,2024.2.4,None,2025-01-26 16h43.52.942056 -0500,
1.0,-1,0.025,20,20,0,left,0.2479687500745058,None,0,20,20,59,22.067795665934682,,,,22.061013208003715,22.657353374990635,22.909075125004165,left,0.2479687500745058,None,demo2,001,2025-01-26_16h43.44.651,contrast_sensitivity,2024.2.4,None,2025-01-26 16h43.52.942056 -0500,
0.05,-1,0.05,21,21,0,left,0.4372165409149602,None,0,21,21,45,22.917779040988535,,,,22.91156349994708,23.507083041011356,23.945806249976158,left,0.4372165409149602,None,demo2,001,2025-01-26_16h43.44.651,contrast_sensitivity,2024.2.4,None,2025-01-26 16h43.52.942056 -0500,
0.01,1,0.1,22,22,0,right,0.48726441606413573,None,0,22,22,26,23.957139916019514,,,,23.94787475001067,24.545197665924206,25.042961124912836,right,0.48726441606413573,None,demo2,001,2025-01-26_16h43.44.651,contrast_sensitivity,2024.2.4,None,2025-01-26 16h43.52.942056 -0500,
1.0,-1,0.05,23,23,0,left,0.3536455419380218,None,0,23,23,47,25.05182862491347,,,,25.04504304099828,25.639620915986598,25.996572165982798,left,0.3536455419380218,None,demo2,001,2025-01-26_16h43.44.651,contrast_sensitivity,2024.2.4,None,2025-01-26 16h43.52.942056 -0500,
1.0,1,0.2,24,24,0,right,0.3637936250306666,None,0,24,24,17,26.00696229096502,,,,25.99849316594191,26.59455249994062,26.962915082927793,right,0.3637936250306666,None,demo2,001,2025-01-26_16h43.44.651,contrast_sensitivity,2024.2.4,None,2025-01-26 16h43.52.942056 -0500,
0.1,1,0.2,25,25,0,right,0.48270091705489904,None,0,25,25,16,26.973397707915865,,,,26.964937333017588,27.561518291011453,28.05790099990554,right,0.48270091705489904,None,demo2,001,2025-01-26_16h43.44.651,contrast_sensitivity,2024.2.4,None,2025-01-26 16h43.52.942056 -0500,
0.1,-1,0.4,26,26,0,left,0.22401191596873105,None,0,26,26,10,28.06327629100997,,,,28.058898249990307,28.645374624989927,28.876175832934678,left,0.22401191596873105,None,demo2,001,2025-01-26_16h43.44.651,contrast_sensitivity,2024.2.4,None,2025-01-26 16h43.52.942056 -0500,
0.01,-1,0.025,27,27,0,right,0.2843607079703361,None,0,27,27,56,28.88572941592429,,,,28.878292624955066,29.473810707917437,29.76246145798359,right,0.2843607079703361,None,demo2,001,2025-01-26_16h43.44.651,contrast_sensitivity,2024.2.4,None,2025-01-26 16h43.52.942056 -0500,
1.0,-1,0.2,28,28,0,left,0.35621362493839115,None,0,28,28,23,29.77374291594606,,,,29.76451058301609,30.356976540992036,30.729434415930882,left,0.35621362493839115,None,demo2,001,2025-01-26_16h43.44.651,contrast_sensitivity,2024.2.4,None,2025-01-26 16h43.52.942056 -0500,
0.0001,1,0.1,29,29,0,right,0.783904124982655,None,0,29,29,25,30.74063595791813,,,,30.731271166005172,31.328237875015475,32.12626458297018,right,0.783904124982655,None,demo2,001,2025-01-26_16h43.44.651,contrast_sensitivity,2024.2.4,None,2025-01-26 16h43.52.942056 -0500,
1e-08,1,0.1,30,30,0,right,0.9362935840617865,None,0,30,30,24,32.13492866593879,,,,32.12808270798996,32.72382379102055,33.662812707945704,right,0.9362935840617865,None,demo2,001,2025-01-26_16h43.44.651,contrast_sensitivity,2024.2.4,None,2025-01-26 16h43.52.942056 -0500,
0.05,1,0.1,31,31,0,right,0.24509141698945314,None,0,31,31,27,33.67378983297385,,,,33.664827332948335,34.26108641596511,34.50953841593582,right,0.24509141698945314,None,demo2,001,2025-01-26_16h43.44.651,contrast_sensitivity,2024.2.4,None,2025-01-26 16h43.52.942056 -0500,
0.01,-1,0.1,32,32,0,left,0.48324733308982104,None,0,32,32,32,34.51828574994579,,,,34.51151904091239,35.11180945800152,35.60979212494567,left,0.48324733308982104,None,demo2,001,2025-01-26_16h43.44.651,contrast_sensitivity,2024.2.4,None,2025-01-26 16h43.52.942056 -0500,
1e-08,-1,0.2,33,33,0,left,0.6368355839513242,None,0,33,33,18,35.61835016601253,,,,35.61168099998031,36.20718412497081,36.8458352079615,left,0.6368355839513242,None,demo2,001,2025-01-26_16h43.44.651,contrast_sensitivity,2024.2.4,None,2025-01-26 16h43.52.942056 -0500,
0.05,-1,0.025,34,34,0,left,0.846502959029749,None,0,34,34,57,36.857274499954656,,,,36.84797129093204,37.44051899993792,38.29289799998514,left,0.846502959029749,None,demo2,001,2025-01-26_16h43.44.651,contrast_sensitivity,2024.2.4,None,2025-01-26 16h43.52.942056 -0500,
0.0001,1,0.2,35,35,0,right,0.33446733304299414,None,0,35,35,13,38.30246587493457,,,,38.29503516596742,38.890515625011176,39.22998008294962,right,0.33446733304299414,None,demo2,001,2025-01-26_16h43.44.651,contrast_sensitivity,2024.2.4,None,2025-01-26 16h43.52.942056 -0500,
0.05,-1,0.1,36,36,0,left,0.412787584005855,None,0,36,36,33,39.240303625003435,,,,39.23200116597582,39.8281630409183,40.24583016592078,left,0.412787584005855,None,demo2,001,2025-01-26_16h43.44.651,contrast_sensitivity,2024.2.4,None,2025-01-26 16h43.52.942056 -0500,
0.01,1,0.025,37,37,0,right,0.3833014580886811,None,0,37,37,50,40.25716741592623,,,,40.24773141602054,40.84463320800569,41.230627915938385,right,0.3833014580886811,None,demo2,001,2025-01-26_16h43.44.651,contrast_sensitivity,2024.2.4,None,2025-01-26 16h43.52.942056 -0500,
1e-08,1,0.025,38,38,0,left,0.46591870905831456,None,0,38,38,48,41.240233374992386,,,,41.232491499977186,41.82803716592025,42.30948579101823,left,0.46591870905831456,None,demo2,001,2025-01-26_16h43.44.651,contrast_sensitivity,2024.2.4,None,2025-01-26 16h43.52.942056 -0500,
0.01,-1,0.4,39,39,0,left,0.3378189579816535,None,0,39,39,8,42.3238966249628,,,,42.31151799997315,42.90710145793855,43.24821150000207,left,0.3378189579816535,None,demo2,001,2025-01-26_16h43.44.651,contrast_sensitivity,2024.2.4,None,2025-01-26 16h43.52.942056 -0500,
0.01,-1,0.2,40,40,0,left,0.3653194169746712,None,0,40,40,20,43.25631245796103,,,,43.249923749943264,43.85758466599509,44.22575541597325,left,0.3653194169746712,None,demo2,001,2025-01-26_16h43.44.651,contrast_sensitivity,2024.2.4,None,2025-01-26 16h43.52.942056 -0500,
1.0,1,0.1,41,41,0,right,0.340800957987085,None,0,41,41,29,44.23399895790499,,,,44.228197415941395,44.82401545799803,45.17619049991481,right,0.340800957987085,None,demo2,001,2025-01-26_16h43.44.651,contrast_sensitivity,2024.2.4,None,2025-01-26 16h43.52.942056 -0500,
0.01,1,0.05,42,42,0,right,0.5809943339554593,None,0,42,42,38,45.185197999933735,,,,45.178382415906526,45.773848332930356,46.35932533291634,right,0.5809943339554593,None,demo2,001,2025-01-26_16h43.44.651,contrast_sensitivity,2024.2.4,None,2025-01-26 16h43.52.942056 -0500,
0.0001,1,0.4,43,43,0,right,0.47566233295947313,None,0,43,43,1,46.36808799998835,,,,46.36133108299691,46.95721654093359,47.442975624930114,right,0.47566233295947313,None,demo2,001,2025-01-26_16h43.44.651,contrast_sensitivity,2024.2.4,None,2025-01-26 16h43.52.942056 -0500,
1.0,1,0.4,44,44,0,right,0.3631160829681903,None,0,44,44,5,47.45175579097122,,,,47.44497424992733,48.0407377500087,48.40958008298185,right,0.3631160829681903,None,demo2,001,2025-01-26_16h43.44.651,contrast_sensitivity,2024.2.4,None,2025-01-26 16h43.52.942056 -0500,
0.01,-1,0.05,45,45,0,right,0.4306453330209479,None,0,45,45,44,48.41783175000455,,,,48.41146754100919,49.00712854100857,49.44233449990861,right,0.4306453330209479,None,demo2,001,2025-01-26_16h43.44.651,contrast_sensitivity,2024.2.4,None,2025-01-26 16h43.52.942056 -0500,
0.05,1,0.4,46,46,0,right,0.34061187505722046,None,0,46,46,3,49.450986000010744,,,,49.44434479100164,50.04010958294384,50.39282737497706,right,0.34061187505722046,None,demo2,001,2025-01-26_16h43.44.651,contrast_sensitivity,2024.2.4,None,2025-01-26 16h43.52.942056 -0500,
1.0,1,0.025,47,47,0,right,0.44918875000439584,None,0,47,47,53,50.40172970795538,,,,50.3948229579255,50.99054166593123,51.44293233298231,right,0.44918875000439584,None,demo2,001,2025-01-26_16h43.44.651,contrast_sensitivity,2024.2.4,None,2025-01-26 16h43.52.942056 -0500,
0.0001,-1,0.1,48,48,0,right,0.4482847499893978,None,0,48,48,31,51.45161729096435,,,,51.444964041002095,52.04037779092323,52.492771541001275,right,0.4482847499893978,None,demo2,001,2025-01-26_16h43.44.651,contrast_sensitivity,2024.2.4,None,2025-01-26 16h43.52.942056 -0500,
0.0001,-1,0.05,49,49,0,right,0.39820141601376235,None,0,49,49,43,52.50237608293537,,,,52.494876499986276,53.090452249976806,53.49280195799656,right,0.39820141601376235,None,demo2,001,2025-01-26_16h43.44.651,contrast_sensitivity,2024.2.4,None,2025-01-26 16h43.52.942056 -0500,
0.1,1,0.4,50,50,0,right,0.3517216669861227,None,0,50,50,4,53.50149199995212,,,,53.4948045409983,54.089956625015475,54.446732249925844,right,0.3517216669861227,None,demo2,001,2025-01-26_16h43.44.651,contrast_sensitivity,2024.2.4,None,2025-01-26 16h43.52.942056 -0500,
0.0001,1,0.05,51,51,0,right,0.38831004104577005,None,0,51,51,37,54.45710820797831,,,,54.448510457994416,55.04432662494946,55.442455915967,right,0.38831004104577005,None,demo2,001,2025-01-26_16h43.44.651,contrast_sensitivity,2024.2.4,None,2025-01-26 16h43.52.942056 -0500,
0.05,-1,0.4,52,52,0,left,0.2635864580515772,None,0,52,52,9,55.451436750008725,,,,55.444643749971874,56.04012987494934,56.309524665935896,left,0.2635864580515772,None,demo2,001,2025-01-26_16h43.44.651,contrast_sensitivity,2024.2.4,None,2025-01-26 16h43.52.942056 -0500,
1.0,-1,0.1,53,53,0,left,0.3484169590519741,None,0,53,53,35,56.31771862495225,,,,56.311381291016005,56.90717437490821,57.25984708301257,left,0.3484169590519741,None,demo2,001,2025-01-26_16h43.44.651,contrast_sensitivity,2024.2.4,None,2025-01-26 16h43.52.942056 -0500,
0.05,1,0.05,54,54,0,right,0.2956342500401661,None,0,54,54,39,57.268367624958046,,,,57.26181904098485,57.857075374922715,58.159530416014604,right,0.2956342500401661,None,demo2,001,2025-01-26_16h43.44.651,contrast_sensitivity,2024.2.4,None,2025-01-26 16h43.52.942056 -0500,
0.01,1,0.2,55,55,0,right,0.46229375002440065,None,0,55,55,14,58.16815745795611,,,,58.16133454092778,58.75722204090562,59.225925375008956,right,0.46229375002440065,None,demo2,001,2025-01-26_16h43.44.651,contrast_sensitivity,2024.2.4,None,2025-01-26 16h43.52.942056 -0500,
1e-08,-1,0.05,56,56,0,left,0.400688000023365,None,0,56,56,42,59.235085665946826,,,,59.22825683292467,59.82377949997317,60.22995620791335,left,0.400688000023365,None,demo2,001,2025-01-26_16h43.44.651,contrast_sensitivity,2024.2.4,None,2025-01-26 16h43.52.942056 -0500,
1e-08,1,0.2,57,57,0,right,0.4305472500855103,None,0,57,57,12,60.239449957967736,,,,60.23257795791142,60.827960875001736,61.2628164999187,right,0.4305472500855103,None,demo2,001,2025-01-26_16h43.44.651,contrast_sensitivity,2024.2.4,None,2025-01-26 16h43.52.942056 -0500,
0.1,-1,0.025,58,58,0,right,0.4102887499611825,None,0,58,58,58,61.27378416596912,,,,61.264789458015,61.86116099997889,62.276022624922916,right,0.4102887499611825,None,demo2,001,2025-01-26_16h43.44.651,contrast_sensitivity,2024.2.4,None,2025-01-26 16h43.52.942056 -0500,
0.05,1,0.2,59,59,0,right,0.3792599589796737,None,0,59,59,15,62.28506862500217,,,,62.27813350001816,62.87328062497545,63.25964750000276,right,0.3792599589796737,None,demo2,001,2025-01-26_16h43.44.651,contrast_sensitivity,2024.2.4,None,2025-01-26 16h43.52.942056 -0500,
0.0001,1,0.1,60,0,1,left,0.4841709170723334,None,1,0,60,25,63.2677234999137,,,,63.261496124905534,63.85721416596789,64.34661691600922,left,0.4841709170723334,None,demo2,001,2025-01-26_16h43.44.651,contrast_sensitivity,2024.2.4,None,2025-01-26 16h43.52.942056 -0500,
0.0001,-1,0.2,61,1,1,left,0.41280129202641547,None,1,1,61,19,64.3568995000096,,,,64.34856229100842,64.9445596250007,65.36232129100244,left,0.41280129202641547,None,demo2,001,2025-01-26_16h43.44.651,contrast_sensitivity,2024.2.4,None,2025-01-26 16h43.52.942056 -0500,
0.1,-1,0.05,62,2,1,left,0.3362392920535058,None,1,2,62,46,65.3736954999622,,,,65.36427737493068,65.95709174999502,66.29614137497265,left,0.3362392920535058,None,demo2,001,2025-01-26_16h43.44.651,contrast_sensitivity,2024.2.4,None,2025-01-26 16h43.52.942056 -0500,
0.05,-1,0.2,63,3,1,left,0.15955029195174575,None,1,3,63,21,66.30710320791695,,,,66.2981744579738,66.89492779097054,67.0595357499551,left,0.15955029195174575,None,demo2,001,2025-01-26_16h43.44.651,contrast_sensitivity,2024.2.4,None,2025-01-26 16h43.52.942056 -0500,
0.01,-1,0.05,64,4,1,left,0.42510858306195587,None,1,4,64,44,67.06786224991083,,,,67.06134820799343,67.65720608294941,68.09285883291159,left,0.42510858306195587,None,demo2,001,2025-01-26_16h43.44.651,contrast_sensitivity,2024.2.4,None,2025-01-26 16h43.52.942056 -0500,
0.1,-1,0.025,65,5,1,right,0.333574999938719,None,1,5,65,58,68.10147150000557,,,,68.09465004096273,68.69175254099537,69.02915854100138,right,0.333574999938719,None,demo2,001,2025-01-26_16h43.44.651,contrast_sensitivity,2024.2.4,None,2025-01-26 16h43.52.942056 -0500,
0.0001,1,0.05,66,6,1,left,0.5635688330512494,None,1,6,66,37,69.04043591592927,,,,69.03087554092053,69.62873066600878,70.19725845800713,left,0.5635688330512494,None,demo2,001,2025-01-26_16h43.44.651,contrast_sensitivity,2024.2.4,None,2025-01-26 16h43.52.942056 -0500,
1.0,1,0.1,67,7,1,right,0.4398630829527974,None,1,7,67,29,70.2069007079117,,,,70.19909745792393,70.79450537497178,71.24297437490895,right,0.4398630829527974,None,demo2,001,2025-01-26_16h43.44.651,contrast_sensitivity,2024.2.4,None,2025-01-26 16h43.52.942056 -0500,
0.0001,1,0.025,68,8,1,left,0.27580541698262095,None,1,8,68,49,71.25148870795965,,,,71.24492562492378,71.84052141592838,72.1262085000053,left,0.27580541698262095,None,demo2,001,2025-01-26_16h43.44.651,contrast_sensitivity,2024.2.4,None,2025-01-26 16h43.52.942056 -0500,
1.0,1,0.05,69,9,1,right,0.2740878330077976,None,1,9,69,41,72.13477954093833,,,,72.12829129095189,72.7241100409301,73.01011195790488,right,0.2740878330077976,None,demo2,001,2025-01-26_16h43.44.651,contrast_sensitivity,2024.2.4,None,2025-01-26 16h43.52.942056 -0500,
1.0,-1,0.025,70,10,1,left,0.47507058293558657,None,1,10,70,59,73.01872533292044,,,,73.01234799996018,73.60709937498905,74.09257712494582,left,0.47507058293558657,None,demo2,001,2025-01-26_16h43.44.651,contrast_sensitivity,2024.2.4,None,2025-01-26 16h43.52.942056 -0500,
0.05,1,0.4,71,11,1,right,0.30326591699849814,None,1,11,71,3,74.10157504095696,,,,74.09471441595815,74.6904505409766,74.99664583301637,right,0.30326591699849814,None,demo2,001,2025-01-26_16h43.44.651,contrast_sensitivity,2024.2.4,None,2025-01-26 16h43.52.942056 -0500,
1e-08,-1,0.2,72,12,1,right,0.35485829098615795,None,1,12,72,18,75.00723216601182,,,,74.99859545798972,75.59440912492573,75.95911179098766,right,0.35485829098615795,None,demo2,001,2025-01-26_16h43.44.651,contrast_sensitivity,2024.2.4,None,2025-01-26 16h43.52.942056 -0500,
1e-08,-1,0.4,73,13,1,left,0.6269158750073984,None,1,13,73,6,75.96821291593369,,,,75.96123316593003,76.55729949998204,77.19351962499786,left,0.6269158750073984,None,demo2,001,2025-01-26_16h43.44.651,contrast_sensitivity,2024.2.4,None,2025-01-26 16h43.52.942056 -0500,
1e-08,1,0.1,74,14,1,right,0.8064299159450457,None,1,14,74,24,77.20247812499292,,,,77.19569783296902,77.79162129096221,78.60952758300118,right,0.8064299159450457,None,demo2,001,2025-01-26_16h43.44.651,contrast_sensitivity,2024.2.4,None,2025-01-26 16h43.52.942056 -0500,
1e-08,1,0.4,75,15,1,right,0.35205250000581145,None,1,15,75,0,78.61818404099904,,,,78.61151870794129,79.20701491599903,79.56267675000709,right,0.35205250000581145,None,demo2,001,2025-01-26_16h43.44.651,contrast_sensitivity,2024.2.4,None,2025-01-26 16h43.52.942056 -0500,
0.05,1,0.1,76,16,1,right,0.37469587509986013,None,1,16,76,27,79.57356662501115,,,,79.56466199993156,80.16136212495621,80.5426062499173,right,0.37469587509986013,None,demo2,001,2025-01-26_16h43.44.651,contrast_sensitivity,2024.2.4,None,2025-01-26 16h43.52.942056 -0500,
0.05,1,0.2,77,17,1,right,0.2513960829237476,None,1,17,77,15,80.55134274996817,,,,80.54468604095746,81.14060845796485,81.39745554095134,right,0.2513960829237476,None,demo2,001,2025-01-26_16h43.44.651,contrast_sensitivity,2024.2.4,None,2025-01-26 16h43.52.942056 -0500,
0.0001,-1,0.4,78,18,1,left,0.8732052919222042,None,1,18,78,7,81.40601179096848,,,,81.39920262491796,81.99477633298375,82.87623733293731,left,0.8732052919222042,None,demo2,001,2025-01-26_16h43.44.651,contrast_sensitivity,2024.2.4,None,2025-01-26 16h43.52.942056 -0500,
0.1,1,0.4,79,19,1,right,0.4158071670681238,None,1,19,79,4,82.8858036249876,,,,82.87828724994324,83.47410566592589,83.89283108292148,right,0.4158071670681238,None,demo2,001,2025-01-26_16h43.44.651,contrast_sensitivity,2024.2.4,None,2025-01-26 16h43.52.942056 -0500,
0.0001,-1,0.1,80,20,1,right,0.4022812080802396,None,1,20,80,31,83.9022697500186,,,,83.89483033295255,84.49059324990958,84.89603512501344,right,0.4022812080802396,None,demo2,001,2025-01-26_16h43.44.651,contrast_sensitivity,2024.2.4,None,2025-01-26 16h43.52.942056 -0500,
0.05,1,0.025,81,21,1,right,0.40703387500252575,None,1,21,81,51,84.90704650001135,,,,84.89802291593514,85.4949878329644,85.9093802080024,right,0.40703387500252575,None,demo2,001,2025-01-26_16h43.44.651,contrast_sensitivity,2024.2.4,None,2025-01-26 16h43.52.942056 -0500,
0.0001,-1,0.025,82,22,1,right,0.5448088749544695,None,1,22,82,55,85.91766204091255,,,,85.9112445829669,86.50718524993863,87.05904504097998,right,0.5448088749544695,None,demo2,001,2025-01-26_16h43.44.651,contrast_sensitivity,2024.2.4,None,2025-01-26 16h43.52.942056 -0500,
0.1,1,0.05,83,23,1,right,0.4201720419805497,None,1,23,83,40,87.0679852910107,,,,87.06113699998241,87.65763645793777,88.07939808291849,right,0.4201720419805497,None,demo2,001,2025-01-26_16h43.44.651,contrast_sensitivity,2024.2.4,None,2025-01-26 16h43.52.942056 -0500,
1.0,1,0.4,84,24,1,right,0.36459833406843245,None,1,24,84,5,88.09052562492434,,,,88.0815435409313,88.6772782499902,89.04629554098938,right,0.36459833406843245,None,demo2,001,2025-01-26_16h43.44.651,contrast_sensitivity,2024.2.4,None,2025-01-26 16h43.52.942056 -0500,
1e-08,-1,0.05,85,25,1,right,0.5481144589139149,None,1,25,85,42,89.05698824999854,,,,89.04831283295061,89.64465520798694,90.19566970795859,right,0.5481144589139149,None,demo2,001,2025-01-26_16h43.44.651,contrast_sensitivity,2024.2.4,None,2025-01-26 16h43.52.942056 -0500,
0.05,-1,0.05,86,26,1,left,0.7161398750031367,None,1,26,86,45,90.2069860829506,,,,90.19757887499873,90.80757474992424,91.52600508299656,left,0.7161398750031367,None,demo2,001,2025-01-26_16h43.44.651,contrast_sensitivity,2024.2.4,None,2025-01-26 16h43.52.942056 -0500,
0.05,-1,0.025,87,27,1,right,0.5451691660564393,None,1,27,87,57,91.53430549998302,,,,91.52791062498,92.1236607079627,92.67611195798963,right,0.5451691660564393,None,demo2,001,2025-01-26_16h43.44.651,contrast_sensitivity,2024.2.4,None,2025-01-26 16h43.52.942056 -0500,
1.0,-1,0.4,88,28,1,left,0.40590954094659537,None,1,28,88,11,92.68497649999335,,,,92.67819983290974,93.27381012495607,93.69374874990899,left,0.40590954094659537,None,demo2,001,2025-01-26_16h43.44.651,contrast_sensitivity,2024.2.4,None,2025-01-26 16h43.52.942056 -0500,
1.0,-1,0.05,89,29,1,left,0.3801568748895079,None,1,29,89,47,93.70279141596984,,,,93.6958472909173,94.29052112495992,94.67601133300923,left,0.3801568748895079,None,demo2,001,2025-01-26_16h43.44.651,contrast_sensitivity,2024.2.4,None,2025-01-26 16h43.52.942056 -0500,
1.0,1,0.025,90,30,1,right,0.3845822090515867,None,1,30,90,53,94.68594862497412,,,,94.67817699990701,95.27401383290999,95.66360170801636,right,0.3845822090515867,None,demo2,001,2025-01-26_16h43.44.651,contrast_sensitivity,2024.2.4,None,2025-01-26 16h43.52.942056 -0500,
0.01,1,0.1,91,31,1,right,0.3126354169799015,None,1,31,91,26,95.67362370796036,,,,95.66548554098699,96.26100591593422,96.57643299992196,right,0.3126354169799015,None,demo2,001,2025-01-26_16h43.44.651,contrast_sensitivity,2024.2.4,None,2025-01-26 16h43.52.942056 -0500,
0.0001,1,0.4,92,32,1,right,0.2736865000333637,None,1,32,92,1,96.58600129093975,,,,96.57865095802117,97.17388466594275,97.45956229092553,right,0.2736865000333637,None,demo2,001,2025-01-26_16h43.44.651,contrast_sensitivity,2024.2.4,None,2025-01-26 16h43.52.942056 -0500,
0.1,-1,0.1,93,33,1,left,0.3255203339504078,None,1,33,93,34,97.46766191592906,,,,97.46142166596837,98.05718533298932,98.39280029095244,left,0.3255203339504078,None,demo2,001,2025-01-26_16h43.44.651,contrast_sensitivity,2024.2.4,None,2025-01-26 16h43.52.942056 -0500,
1e-08,1,0.025,94,34,1,right,0.38214216695632786,None,1,34,94,48,98.40120512491558,,,,98.3946265829727,98.99045166594442,99.3762486249907,right,0.38214216695632786,None,demo2,001,2025-01-26_16h43.44.651,contrast_sensitivity,2024.2.4,None,2025-01-26 16h43.52.942056 -0500,
1.0,1,0.2,95,35,1,right,0.4289574170252308,None,1,35,95,17,99.38493720791303,,,,99.37826404091902,99.97370587498881,100.40905137499794,right,0.4289574170252308,None,demo2,001,2025-01-26_16h43.44.651,contrast_sensitivity,2024.2.4,None,2025-01-26 16h43.52.942056 -0500,
0.05,-1,0.1,96,36,1,left,0.31937216606456786,None,1,36,96,33,100.41790020791814,,,,100.41094795800745,101.00708424998447,101.32883799995761,left,0.31937216606456786,None,demo2,001,2025-01-26_16h43.44.651,contrast_sensitivity,2024.2.4,None,2025-01-26 16h43.52.942056 -0500,
0.01,1,0.025,97,37,1,right,0.39474533405154943,None,1,37,97,50,101.34059045801405,,,,101.33094424998853,101.92386629094835,102.32623829098884,right,0.39474533405154943,None,demo2,001,2025-01-26_16h43.44.651,contrast_sensitivity,2024.2.4,None,2025-01-26 16h43.52.942056 -0500,
1e-08,-1,0.025,98,38,1,left,0.4940175829688087,None,1,38,98,54,102.33557987492532,,,,102.32830220798496,102.92355358297937,103.42584966600407,left,0.4940175829688087,None,demo2,001,2025-01-26_16h43.44.651,contrast_sensitivity,2024.2.4,None,2025-01-26 16h43.52.942056 -0500,
0.01,-1,0.2,99,39,1,left,0.49278158403467387,None,1,39,99,20,103.43463245790917,,,,103.42796354100574,104.02374241594225,104.5263118329458,left,0.49278158403467387,None,demo2,001,2025-01-26_16h43.44.651,contrast_sensitivity,2024.2.4,None,2025-01-26 16h43.52.942056 -0500,
0.01,1,0.05,100,40,1,right,0.44464950007386506,None,1,40,100,38,104.5353238749085,,,,104.52825804101303,105.12377404095605,105.57541454094462,right,0.44464950007386506,None,demo2,001,2025-01-26_16h43.44.651,contrast_sensitivity,2024.2.4,None,2025-01-26 16h43.52.942056 -0500,
0.01,-1,0.4,101,41,1,left,0.3785487919813022,None,1,41,101,8,105.58418987493496,,,,105.57740662491415,106.17386866593733,106.55908537493087,left,0.3785487919813022,None,demo2,001,2025-01-26_16h43.44.651,contrast_sensitivity,2024.2.4,None,2025-01-26 16h43.52.942056 -0500,
0.01,-1,0.1,102,42,1,left,0.45315600000321865,None,1,42,102,32,106.56815616600215,,,,106.5613384579774,107.1571862079436,107.61283962498419,left,0.45315600000321865,None,demo2,001,2025-01-26_16h43.44.651,contrast_sensitivity,2024.2.4,None,2025-01-26 16h43.52.942056 -0500,
0.01,-1,0.025,103,43,1,left,0.5762783749960363,None,1,43,103,56,107.62369520799257,,,,107.61484458297491,108.21123608294874,108.7928289999254,left,0.5762783749960363,None,demo2,001,2025-01-26_16h43.44.651,contrast_sensitivity,2024.2.4,None,2025-01-26 16h43.52.942056 -0500,
1.0,-1,0.1,104,44,1,left,0.5368719169637188,None,1,44,104,35,108.80112524994183,,,,108.79469345801044,109.39042812492698,109.92932304099668,left,0.5368719169637188,None,demo2,001,2025-01-26_16h43.44.651,contrast_sensitivity,2024.2.4,None,2025-01-26 16h43.52.942056 -0500,
1.0,-1,0.2,105,45,1,left,0.45088437502272427,None,1,45,105,23,109.94021762500051,,,,109.93121204094496,110.52842416591011,110.99215612490661,left,0.45088437502272427,None,demo2,001,2025-01-26_16h43.44.651,contrast_sensitivity,2024.2.4,None,2025-01-26 16h43.52.942056 -0500,
0.01,1,0.4,106,46,1,right,0.14587216696236283,None,1,46,106,2,111.0009923329344,,,,110.99428341595922,111.59048579097725,111.74223112501204,right,0.14587216696236283,None,demo2,001,2025-01-26_16h43.44.651,contrast_sensitivity,2024.2.4,None,2025-01-26 16h43.52.942056 -0500,
0.1,1,0.025,107,47,1,right,0.8188310830155388,None,1,47,107,52,111.75047945801634,,,,111.7441178750014,112.34039870800916,113.16191295790486,right,0.8188310830155388,None,demo2,001,2025-01-26_16h43.44.651,contrast_sensitivity,2024.2.4,None,2025-01-26 16h43.52.942056 -0500,
1e-08,-1,0.1,108,48,1,left,0.8301291249226779,None,1,48,108,30,113.17374224995729,,,,113.16399983293377,113.75716616597492,114.59240887500346,left,0.8301291249226779,None,demo2,001,2025-01-26_16h43.44.651,contrast_sensitivity,2024.2.4,None,2025-01-26 16h43.52.942056 -0500,
0.1,1,0.1,109,49,1,right,0.4639070410048589,None,1,49,109,28,114.60095674998593,,,,114.59451020800043,115.19037579093128,115.66023458295967,right,0.4639070410048589,None,demo2,001,2025-01-26_16h43.44.651,contrast_sensitivity,2024.2.4,None,2025-01-26 16h43.52.942056 -0500,
0.0001,1,0.2,110,50,1,left,0.48899087496101856,None,1,50,110,13,115.66854208300356,,,,115.6621824579779,116.2571604999248,116.7592307080049,left,0.48899087496101856,None,demo2,001,2025-01-26_16h43.44.651,contrast_sensitivity,2024.2.4,None,2025-01-26 16h43.52.942056 -0500,
0.01,1,0.2,111,51,1,right,0.492208749987185,None,1,51,111,14,116.76778449991252,,,,116.76126791595016,117.3569445409812,117.85893391596619,right,0.492208749987185,None,demo2,001,2025-01-26_16h43.44.651,contrast_sensitivity,2024.2.4,None,2025-01-26 16h43.52.942056 -0500,
0.1,1,0.2,112,52,1,right,0.4749762499704957,None,1,52,112,16,117.86784570792224,,,,117.86101049999706,118.45709629100747,118.94199070800096,right,0.4749762499704957,None,demo2,001,2025-01-26_16h43.44.651,contrast_sensitivity,2024.2.4,None,2025-01-26 16h43.52.942056 -0500,
0.0001,-1,0.05,113,53,1,left,0.5937209170078859,None,1,53,113,43,118.95057324995287,,,,118.94394575001206,119.54046158294659,120.14202108292375,left,0.5937209170078859,None,demo2,001,2025-01-26_16h43.44.651,contrast_sensitivity,2024.2.4,None,2025-01-26 16h43.52.942056 -0500,
1e-08,1,0.2,114,54,1,right,0.5922995420405641,None,1,54,114,12,120.1508581659291,,,,120.14397633296903,120.75777570798527,121.35958624992054,right,0.5922995420405641,None,demo2,001,2025-01-26_16h43.44.651,contrast_sensitivity,2024.2.4,None,2025-01-26 16h43.52.942056 -0500,
0.05,-1,0.4,115,55,1,left,0.39287720806896687,None,1,55,115,9,121.36808808299247,,,,121.36145929095801,121.95716362493113,122.35959787492175,left,0.39287720806896687,None,demo2,001,2025-01-26_16h43.44.651,contrast_sensitivity,2024.2.4,None,2025-01-26 16h43.52.942056 -0500,
1e-08,1,0.05,116,56,1,left,0.43385224998928607,None,1,56,116,36,122.36795608291868,,,,122.36165258300025,122.95711091591511,123.39499458298087,left,0.43385224998928607,None,demo2,001,2025-01-26_16h43.44.651,contrast_sensitivity,2024.2.4,None,2025-01-26 16h43.52.942056 -0500,
0.05,1,0.05,117,57,1,right,0.418517709011212,None,1,57,117,39,123.4070969580207,,,,123.3968258749228,123.99044441594742,124.41344620799646,right,0.418517709011212,None,demo2,001,2025-01-26_16h43.44.651,contrast_sensitivity,2024.2.4,None,2025-01-26 16h43.52.942056 -0500,
0.1,-1,0.2,118,58,1,left,0.4028676670277491,None,1,58,118,22,124.42309604096226,,,,124.41527041594964,125.01210175000597,125.42609500000253,left,0.4028676670277491,None,demo2,001,2025-01-26_16h43.44.651,contrast_sensitivity,2024.2.4,None,2025-01-26 16h43.52.942056 -0500,
0.1,-1,0.4,119,59,1,left,0.45106508396565914,None,1,59,119,10,125.4347050829092,,,,125.42791391594801,126.02382929099258,126.47997554100584,left,0.45106508396565914,None,demo2,001,2025-01-26_16h43.44.651,contrast_sensitivity,2024.2.4,None,2025-01-26 16h43.52.942056 -0500,
0.0001,1,0.1,120,0,2,left,0.5558832089882344,None,2,0,120,25,126.4905043329345,,,,126.48198620800395,127.08004387491383,127.64241062500514,left,0.5558832089882344,None,demo2,001,2025-01-26_16h43.44.651,contrast_sensitivity,2024.2.4,None,2025-01-26 16h43.52.942056 -0500,
1e-08,-1,0.025,121,1,2,right,0.3562383329262957,None,2,1,121,54,127.65059991599992,,,,127.64438491594046,128.24158966599498,128.60964154091198,right,0.3562383329262957,None,demo2,001,2025-01-26_16h43.44.651,contrast_sensitivity,2024.2.4,None,2025-01-26 16h43.52.942056 -0500,
0.1,-1,0.1,122,2,2,left,0.4145784580614418,None,2,2,122,34,128.61829770798795,,,,128.61146174999885,129.20727737492416,129.62558041594457,left,0.4145784580614418,None,demo2,001,2025-01-26_16h43.44.651,contrast_sensitivity,2024.2.4,None,2025-01-26 16h43.52.942056 -0500,
0.05,1,0.1,123,3,2,right,0.36864962498657405,None,2,3,123,27,129.63422445801552,,,,129.6274010000052,130.22415049991105,130.59610500000417,right,0.36864962498657405,None,demo2,001,2025-01-26_16h43.44.651,contrast_sensitivity,2024.2.4,None,2025-01-26 16h43.52.942056 -0500,
1.0,1,0.2,124,4,2,right,0.30424495798069984,None,2,4,124,17,130.60683766601142,,,,130.5983581659384,131.1945840829285,131.50933479098603,right,0.30424495798069984,None,demo2,001,2025-01-26_16h43.44.651,contrast_sensitivity,2024.2.4,None,2025-01-26 16h43.52.942056 -0500,
0.01,-1,0.1,125,5,2,left,0.446550750057213,None,2,5,125,32,131.51773349998984,,,,131.51151212491095,132.1072519159643,132.5595993329771,left,0.446550750057213,None,demo2,001,2025-01-26_16h43.44.651,contrast_sensitivity,2024.2.4,None,2025-01-26 16h43.52.942056 -0500,
1.0,1,0.05,126,6,2,right,0.3128982500638813,None,2,6,126,41,132.56916433293372,,,,132.56170687498525,133.15700633300003,133.47548304090742,right,0.3128982500638813,None,demo2,001,2025-01-26_16h43.44.651,contrast_sensitivity,2024.2.4,None,2025-01-26 16h43.52.942056 -0500,
0.0001,-1,0.05,127,7,2,right,0.3460749170044437,None,2,7,127,43,133.4838582079392,,,,133.47726466599852,134.07380229094997,134.4254255829146,right,0.3460749170044437,None,demo2,001,2025-01-26_16h43.44.651,contrast_sensitivity,2024.2.4,None,2025-01-26 16h43.52.942056 -0500,
1.0,-1,0.4,128,8,2,left,0.21086187497712672,None,2,8,128,11,134.43383604101837,,,,134.42742474994157,135.0238472080091,135.24280904093757,left,0.21086187497712672,None,demo2,001,2025-01-26_16h43.44.651,contrast_sensitivity,2024.2.4,None,2025-01-26 16h43.52.942056 -0500,
1.0,-1,0.025,129,9,2,left,0.3294971660943702,None,2,9,129,59,135.25145670794882,,,,135.2446915829787,135.8403293750016,136.17552004090976,left,0.3294971660943702,None,demo2,001,2025-01-26_16h43.44.651,contrast_sensitivity,2024.2.4,None,2025-01-26 16h43.52.942056 -0500,
1.0,1,0.4,130,10,2,right,0.19301566702779382,None,2,10,130,5,136.18426341598388,,,,136.17743133299518,136.77376387501135,136.9754283329239,right,0.19301566702779382,None,demo2,001,2025-01-26_16h43.44.651,contrast_sensitivity,2024.2.4,None,2025-01-26 16h43.52.942056 -0500,
0.01,-1,0.05,131,11,2,right,0.36679829203058034,None,2,11,131,44,136.98436866595875,,,,136.9774532499723,137.57382375001907,137.9470472499961,right,0.36679829203058034,None,demo2,001,2025-01-26_16h43.44.651,contrast_sensitivity,2024.2.4,None,2025-01-26 16h43.52.942056 -0500,
1e-08,1,0.1,132,12,2,right,0.3486844589933753,None,2,12,132,24,137.95601974998135,,,,137.9489135829499,138.54308420792222,138.8963259999873,right,0.3486844589933753,None,demo2,001,2025-01-26_16h43.44.651,contrast_sensitivity,2024.2.4,None,2025-01-26 16h43.52.942056 -0500,
1.0,-1,0.1,133,13,2,left,0.3591005830094218,None,2,13,133,35,138.90708470798563,,,,138.89834012498613,139.49050883296877,139.85945670795627,left,0.3591005830094218,None,demo2,001,2025-01-26_16h43.44.651,contrast_sensitivity,2024.2.4,None,2025-01-26 16h43.52.942056 -0500,
1e-08,1,0.025,134,14,2,right,0.6113995419582352,None,2,14,134,48,139.8678392909933,,,,139.86125554097816,140.45718104101252,141.07538749999367,right,0.6113995419582352,None,demo2,001,2025-01-26_16h43.44.651,contrast_sensitivity,2024.2.4,None,2025-01-26 16h43.52.942056 -0500,
1e-08,1,0.4,135,15,2,left,0.9818709169048816,None,2,15,135,0,141.08354370796587,,,,141.0770314160036,141.6737072499236,142.6589639999438,left,0.9818709169048816,None,demo2,001,2025-01-26_16h43.44.651,contrast_sensitivity,2024.2.4,None,2025-01-26 16h43.52.942056 -0500,
0.1,-1,0.05,136,16,2,left,0.38543475000187755,None,2,16,136,46,142.6667684999993,,,,142.66066674992908,143.25707716599572,143.6457932909252,left,0.38543475000187755,None,demo2,001,2025-01-26_16h43.44.651,contrast_sensitivity,2024.2.4,None,2025-01-26 16h43.52.942056 -0500,
0.0001,-1,0.4,137,17,2,left,0.3646399580175057,None,2,17,137,7,143.65687599999364,,,,143.64771674992517,144.2448507079389,144.61236220796127,left,0.3646399580175057,None,demo2,001,2025-01-26_16h43.44.651,contrast_sensitivity,2024.2.4,None,2025-01-26 16h43.52.942056 -0500,
1e-08,-1,0.1,138,18,2,left,0.4022528750356287,None,2,18,138,30,144.62371145794168,,,,144.61442383297253,145.20717804098967,145.6248237079708,left,0.4022528750356287,None,demo2,001,2025-01-26_16h43.44.651,contrast_sensitivity,2024.2.4,None,2025-01-26 16h43.52.942056 -0500,
0.05,-1,0.4,139,19,2,left,0.34587191697210073,None,2,19,139,9,145.6304265409708,,,,145.62621062493417,146.22372124996036,146.57560124993324,left,0.34587191697210073,None,demo2,001,2025-01-26_16h43.44.651,contrast_sensitivity,2024.2.4,None,2025-01-26 16h43.52.942056 -0500,
0.1,1,0.4,140,20,2,right,0.24063695804215968,None,2,20,140,4,146.58391049993224,,,,146.57745745801367,147.17376587493345,147.42578166595194,right,0.24063695804215968,None,demo2,001,2025-01-26_16h43.44.651,contrast_sensitivity,2024.2.4,None,2025-01-26 16h43.52.942056 -0500,
0.01,1,0.025,141,21,2,right,0.4726767500396818,None,2,21,141,50,147.43429470795672,,,,147.4276464160066,148.02369279100094,148.50919729098678,right,0.4726767500396818,None,demo2,001,2025-01-26_16h43.44.651,contrast_sensitivity,2024.2.4,None,2025-01-26 16h43.52.942056 -0500,
0.05,1,0.05,142,22,2,right,0.3661617499310523,None,2,22,142,39,148.51755941601004,,,,148.51099795801565,149.1070156659698,149.47617770801298,right,0.3661617499310523,None,demo2,001,2025-01-26_16h43.44.651,contrast_sensitivity,2024.2.4,None,2025-01-26 16h43.52.942056 -0500,
1e-08,-1,0.2,143,23,2,right,0.43560345901641995,None,2,23,143,18,149.48479020793457,,,,149.4780402079923,150.07374337501824,150.5137231249828,right,0.43560345901641995,None,demo2,001,2025-01-26_16h43.44.651,contrast_sensitivity,2024.2.4,None,2025-01-26 16h43.52.942056 -0500,
0.05,1,0.025,144,24,2,left,0.43419679207727313,None,2,24,144,51,150.52355062495917,,,,150.51550374994986,151.1111057079397,151.55931070796214,left,0.43419679207727313,None,demo2,001,2025-01-26_16h43.44.651,contrast_sensitivity,2024.2.4,None,2025-01-26 16h43.52.942056 -0500,
1e-08,1,0.05,145,25,2,right,0.36633162503130734,None,2,25,145,36,151.5677969160024,,,,151.56140583299566,152.1569920409238,152.52604687493294,right,0.36633162503130734,None,demo2,001,2025-01-26_16h43.44.651,contrast_sensitivity,2024.2.4,None,2025-01-26 16h43.52.942056 -0500,
0.1,1,0.05,146,26,2,right,0.4753164170542732,None,2,26,146,40,152.53465416596737,,,,152.52798783301841,153.1240781659726,153.60910816595424,right,0.4753164170542732,None,demo2,001,2025-01-26_16h43.44.651,contrast_sensitivity,2024.2.4,None,2025-01-26 16h43.52.942056 -0500,
1.0,1,0.025,147,27,2,right,0.29127041599713266,None,2,27,147,53,153.61780862498563,,,,153.61115312494803,154.2070518329274,154.5088502499275,right,0.29127041599713266,None,demo2,001,2025-01-26_16h43.44.651,contrast_sensitivity,2024.2.4,None,2025-01-26 16h43.52.942056 -0500,
0.0001,-1,0.1,148,28,2,right,0.38419633300509304,None,2,28,148,31,154.51745741593186,,,,154.51096337498166,155.10701637493912,155.49650070792995,right,0.38419633300509304,None,demo2,001,2025-01-26_16h43.44.651,contrast_sensitivity,2024.2.4,None,2025-01-26 16h43.52.942056 -0500,
0.1,1,0.1,149,29,2,right,0.29357995896134526,None,2,29,149,28,155.50684829091188,,,,155.498461915995,156.09467487491202,156.3925264159916,right,0.29357995896134526,None,demo2,001,2025-01-26_16h43.44.651,contrast_sensitivity,2024.2.4,None,2025-01-26 16h43.52.942056 -0500,
0.01,1,0.05,150,30,2,right,0.30677179200574756,None,2,30,150,38,156.4072181659285,,,,156.3944853330031,156.99043958296534,157.30961691599805,right,0.30677179200574756,None,demo2,001,2025-01-26_16h43.44.651,contrast_sensitivity,2024.2.4,None,2025-01-26 16h43.52.942056 -0500,
0.1,-1,0.4,151,31,2,left,0.18607637495733798,None,2,31,151,10,157.3184196249349,,,,157.31153175001964,157.90708987496328,158.09732466598507,left,0.18607637495733798,None,demo2,001,2025-01-26_16h43.44.651,contrast_sensitivity,2024.2.4,None,2025-01-26 16h43.52.942056 -0500,
1.0,-1,0.05,152,32,2,left,0.3384627919876948,None,2,32,152,47,158.10686870792415,,,,158.09917587495875,158.69484675000422,159.04196570802014,left,0.3384627919876948,None,demo2,001,2025-01-26_16h43.44.651,contrast_sensitivity,2024.2.4,None,2025-01-26 16h43.52.942056 -0500,
1e-08,-1,0.4,153,33,2,left,0.4317779579432681,None,2,33,153,6,159.05086508300155,,,,159.043943415978,159.64035845792387,160.07582933292724,left,0.4317779579432681,None,demo2,001,2025-01-26_16h43.44.651,contrast_sensitivity,2024.2.4,None,2025-01-26 16h43.52.942056 -0500,
0.0001,1,0.05,154,34,2,right,0.35337937506847084,None,2,34,154,37,160.08435504091904,,,,160.07762349990662,160.67371237499174,161.02964316599537,right,0.35337937506847084,None,demo2,001,2025-01-26_16h43.44.651,contrast_sensitivity,2024.2.4,None,2025-01-26 16h43.52.942056 -0500,
0.01,1,0.1,155,35,2,right,0.4339269999181852,None,2,35,155,26,161.04029466595966,,,,161.03159883292392,161.6281410829397,162.07651666598395,right,0.4339269999181852,None,demo2,001,2025-01-26_16h43.44.651,contrast_sensitivity,2024.2.4,None,2025-01-26 16h43.52.942056 -0500,
0.0001,-1,0.025,156,36,2,left,0.46934766601771116,None,2,36,156,55,162.08554729097523,,,,162.07860833301675,162.6736966659082,163.14594358298928,left,0.46934766601771116,None,demo2,001,2025-01-26_16h43.44.651,contrast_sensitivity,2024.2.4,None,2025-01-26 16h43.52.942056 -0500,
0.0001,1,0.2,157,37,2,right,0.5877405840437859,None,2,37,157,13,163.15724154096097,,,,163.14776583295316,163.74534504092298,164.342444333015,right,0.5877405840437859,None,demo2,001,2025-01-26_16h43.44.651,contrast_sensitivity,2024.2.4,None,2025-01-26 16h43.52.942056 -0500,
1e-08,-1,0.05,158,38,2,right,0.5735884580062702,None,2,38,158,42,164.35136220802087,,,,164.34464816597756,164.94039679097477,165.52542054094374,right,0.5735884580062702,None,demo2,001,2025-01-26_16h43.44.651,contrast_sensitivity,2024.2.4,None,2025-01-26 16h43.52.942056 -0500,
0.0001,-1,0.2,159,39,2,left,0.45305250003002584,None,2,39,159,19,165.53401929093525,,,,165.52744674996939,166.1239122080151,166.57929158292245,left,0.45305250003002584,None,demo2,001,2025-01-26_16h43.44.651,contrast_sensitivity,2024.2.4,None,2025-01-26 16h43.52.942056 -0500,
0.1,1,0.2,160,40,2,right,0.2924440000206232,None,2,40,160,16,166.59035933297127,,,,166.5813386249356,167.17360404098872,167.47613929095678,right,0.2924440000206232,None,demo2,001,2025-01-26_16h43.44.651,contrast_sensitivity,2024.2.4,None,2025-01-26 16h43.52.942056 -0500,
0.01,-1,0.025,161,41,2,right,0.6180967920226976,None,2,41,161,56,167.48455604095943,,,,167.47797058301512,168.07379837497137,168.69589395797811,right,0.6180967920226976,None,demo2,001,2025-01-26_16h43.44.651,contrast_sensitivity,2024.2.4,None,2025-01-26 16h43.52.942056 -0500,
0.05,1,0.4,162,42,2,right,0.38929270789958537,None,2,42,162,3,168.70690445799846,,,,168.6978844999103,169.29462466598488,169.6932199159637,right,0.38929270789958537,None,demo2,001,2025-01-26_16h43.44.651,contrast_sensitivity,2024.2.4,None,2025-01-26 16h43.52.942056 -0500,
0.1,-1,0.2,163,43,2,left,0.3265241249464452,None,2,43,163,22,169.7023139159428,,,,169.69518566597253,170.29047016601544,170.62620225001592,left,0.3265241249464452,None,demo2,001,2025-01-26_16h43.44.651,contrast_sensitivity,2024.2.4,None,2025-01-26 16h43.52.942056 -0500,
0.05,-1,0.1,164,44,2,left,0.34096929198130965,None,2,44,164,33,170.6350418329239,,,,170.6283176660072,171.2238748749951,171.57617224997375,left,0.34096929198130965,None,demo2,001,2025-01-26_16h43.44.651,contrast_sensitivity,2024.2.4,None,2025-01-26 16h43.52.942056 -0500,
0.01,-1,0.4,165,45,2,right,0.19164550001733005,None,2,45,165,8,171.58488195796963,,,,171.57819679100066,172.1739070409676,172.37628129101358,right,0.19164550001733005,None,demo2,001,2025-01-26_16h43.44.651,contrast_sensitivity,2024.2.4,None,2025-01-26 16h43.52.942056 -0500,
1.0,-1,0.2,166,46,2,left,0.2938672919990495,None,2,46,166,23,172.38471449993085,,,,172.37814558297396,172.97396095795557,173.2761979579227,left,0.2938672919990495,None,demo2,001,2025-01-26_16h43.44.651,contrast_sensitivity,2024.2.4,None,2025-01-26 16h43.52.942056 -0500,
1.0,1,0.1,167,47,2,right,0.23209504201076925,None,2,47,167,29,173.28575020795688,,,,173.2783418749459,173.87371666601393,174.10941670800094,right,0.23209504201076925,None,demo2,001,2025-01-26_16h43.44.651,contrast_sensitivity,2024.2.4,None,2025-01-26 16h43.52.942056 -0500,
0.0001,1,0.025,168,48,2,right,0.31556529202498496,None,2,48,168,49,174.11735674994998,,,,174.11118649994023,174.7072317500133,175.02626862493344,right,0.31556529202498496,None,demo2,001,2025-01-26_16h43.44.651,contrast_sensitivity,2024.2.4,None,2025-01-26 16h43.52.942056 -0500,
0.01,1,0.2,169,49,2,left,0.3769922909559682,None,2,49,169,14,175.0341352079995,,,,175.02817416598555,175.62388383294456,176.00944604096003,left,0.3769922909559682,None,demo2,001,2025-01-26_16h43.44.651,contrast_sensitivity,2024.2.4,None,2025-01-26 16h43.52.942056 -0500,
0.05,-1,0.2,170,50,2,left,0.1789411660283804,None,2,50,170,21,176.01799670793116,,,,176.01147004100494,176.60691379092168,176.79240462498274,left,0.1789411660283804,None,demo2,001,2025-01-26_16h43.44.651,contrast_sensitivity,2024.2.4,None,2025-01-26 16h43.52.942056 -0500,
0.05,-1,0.05,171,51,2,left,0.31535254104528576,None,2,51,171,45,176.80191729101352,,,,176.7944795829244,177.3903478749562,177.70976908295415,left,0.31535254104528576,None,demo2,001,2025-01-26_16h43.44.651,contrast_sensitivity,2024.2.4,None,2025-01-26 16h43.52.942056 -0500,
0.05,1,0.2,172,52,2,right,0.20769641594961286,None,2,52,172,15,177.7181507910136,,,,177.71168191591278,178.30700399994384,178.52543508296367,right,0.20769641594961286,None,demo2,001,2025-01-26_16h43.44.651,contrast_sensitivity,2024.2.4,None,2025-01-26 16h43.52.942056 -0500,
0.01,1,0.4,173,53,2,right,0.18392633402254432,None,2,53,173,2,178.53418416599743,,,,178.52742970793042,179.1237180409953,179.31316637492273,right,0.18392633402254432,None,demo2,001,2025-01-26_16h43.44.651,contrast_sensitivity,2024.2.4,None,2025-01-26 16h43.52.942056 -0500,
0.1,1,0.025,174,54,2,right,0.2956659580813721,None,2,54,174,52,179.3234869579319,,,,179.31519162491895,179.91100674995687,180.20989270799328,right,0.2956659580813721,None,demo2,001,2025-01-26_16h43.44.651,contrast_sensitivity,2024.2.4,None,2025-01-26 16h43.52.942056 -0500,
0.05,-1,0.025,175,55,2,left,0.3456767089664936,None,2,55,175,57,180.21873587497976,,,,180.212180665927,180.82408774993382,181.17528254096396,left,0.3456767089664936,None,demo2,001,2025-01-26_16h43.44.651,contrast_sensitivity,2024.2.4,None,2025-01-26 16h43.52.942056 -0500,
1e-08,1,0.2,176,56,2,left,0.4533100830158219,None,2,56,176,12,181.1828309999546,,,,181.17710737499874,181.77424058294855,182.24223483295646,left,0.4533100830158219,None,demo2,001,2025-01-26_16h43.44.651,contrast_sensitivity,2024.2.4,None,2025-01-26 16h43.52.942056 -0500,
0.0001,1,0.4,177,57,2,left,0.21826304192654788,None,2,57,177,1,182.2521265000105,,,,182.24455504096113,182.84031979099382,183.06178699992597,left,0.21826304192654788,None,demo2,001,2025-01-26_16h43.44.651,contrast_sensitivity,2024.2.4,None,2025-01-26 16h43.52.942056 -0500,
0.1,-1,0.025,178,58,2,right,0.38745708391070366,None,2,58,178,58,183.07376066595316,,,,183.06371424999088,183.6570580409607,184.04663983301725,right,0.38745708391070366,None,demo2,001,2025-01-26_16h43.44.651,contrast_sensitivity,2024.2.4,None,2025-01-26 16h43.52.942056 -0500,
0.01,-1,0.2,179,59,2,left,0.37151558394543827,None,2,59,179,20,184.05724204098806,,,,184.04860512493178,184.6471412499668,185.025557332905,left,0.37151558394543827,None,demo2,001,2025-01-26_16h43.44.651,contrast_sensitivity,2024.2.4,None,2025-01-26 16h43.52.942056 -0500,
1.0,-1,0.025,180,0,3,left,0.3196600419469178,None,3,0,180,59,185.0340423330199,,,,185.02758337499108,185.6238514999859,185.9460854579229,left,0.3196600419469178,None,demo2,001,2025-01-26_16h43.44.651,contrast_sensitivity,2024.2.4,None,2025-01-26 16h43.52.942056 -0500,
0.05,-1,0.2,181,1,3,left,0.31510787503793836,None,3,1,181,21,185.9569640000118,,,,185.94820341595914,186.54038891592063,186.85936754092108,left,0.31510787503793836,None,demo2,001,2025-01-26_16h43.44.651,contrast_sensitivity,2024.2.4,None,2025-01-26 16h43.52.942056 -0500,
0.01,-1,0.4,182,2,3,left,0.4285174999386072,None,3,2,182,8,186.86763933300972,,,,186.86118483298924,187.45701787492726,187.89284466591198,left,0.4285174999386072,None,demo2,001,2025-01-26_16h43.44.651,contrast_sensitivity,2024.2.4,None,2025-01-26 16h43.52.942056 -0500,
0.01,-1,0.2,183,3,3,right,0.38311516703106463,None,3,3,183,20,187.90172912494745,,,,187.89490283292253,188.4903454160085,188.87605724995956,right,0.38311516703106463,None,demo2,001,2025-01-26_16h43.44.651,contrast_sensitivity,2024.2.4,None,2025-01-26 16h43.52.942056 -0500,
1e-08,-1,0.2,184,4,3,left,0.35360550007317215,None,3,4,184,18,188.88448112492915,,,,188.87783991592005,189.47378024994396,189.84258099994622,left,0.35360550007317215,None,demo2,001,2025-01-26_16h43.44.651,contrast_sensitivity,2024.2.4,None,2025-01-26 16h43.52.942056 -0500,
1.0,1,0.1,185,5,3,right,0.34706429194193333,None,3,5,185,29,189.85148620791733,,,,189.84459204098675,190.44046758301556,190.79204695799854,right,0.34706429194193333,None,demo2,001,2025-01-26_16h43.44.651,contrast_sensitivity,2024.2.4,None,2025-01-26 16h43.52.942056 -0500,
0.0001,-1,0.2,186,6,3,right,0.6111194579862058,None,3,6,186,19,190.80100500001572,,,,190.7940954999067,191.39027837500907,192.00876379094552,right,0.6111194579862058,None,demo2,001,2025-01-26_16h43.44.651,contrast_sensitivity,2024.2.4,None,2025-01-26 16h43.52.942056 -0500,
0.0001,-1,0.1,187,7,3,left,0.3974352499935776,None,3,7,187,31,192.01744454097934,,,,192.01076441595796,192.6070666660089,193.0095610410208,left,0.3974352499935776,None,demo2,001,2025-01-26_16h43.44.651,contrast_sensitivity,2024.2.4,None,2025-01-26 16h43.52.942056 -0500,
0.01,-1,0.025,188,8,3,left,0.4656492079375312,None,3,8,188,56,193.01850366592407,,,,193.0115802079672,193.60711712494958,194.07544337492436,left,0.4656492079375312,None,demo2,001,2025-01-26_16h43.44.651,contrast_sensitivity,2024.2.4,None,2025-01-26 16h43.52.942056 -0500,
0.0001,1,0.05,189,9,3,right,0.6406042079906911,None,3,9,189,37,194.08420449995901,,,,194.07731333293486,194.67367204092443,195.32676720793825,right,0.6406042079906911,None,demo2,001,2025-01-26_16h43.44.651,contrast_sensitivity,2024.2.4,None,2025-01-26 16h43.52.942056 -0500,
1.0,1,0.4,190,10,3,right,0.4064043340040371,None,3,10,190,5,195.33507095801178,,,,195.32932641601656,195.92387466598302,196.3428989999229,right,0.4064043340040371,None,demo2,001,2025-01-26_16h43.44.651,contrast_sensitivity,2024.2.4,None,2025-01-26 16h43.52.942056 -0500,
0.1,1,0.025,191,11,3,right,0.3258984999265522,None,3,11,191,52,196.3514856249094,,,,196.34459808294196,196.94035491591785,197.27589120797347,right,0.3258984999265522,None,demo2,001,2025-01-26_16h43.44.651,contrast_sensitivity,2024.2.4,None,2025-01-26 16h43.52.942056 -0500,
0.01,1,0.025,192,12,3,right,0.43445595900993794,None,3,12,192,50,197.28469399991445,,,,197.27801504090894,197.87378404091578,198.31302091595717,right,0.43445595900993794,None,demo2,001,2025-01-26_16h43.44.651,contrast_sensitivity,2024.2.4,None,2025-01-26 16h43.52.942056 -0500,
0.1,-1,0.1,193,13,3,left,0.29305095796007663,None,3,13,193,34,198.32345679099672,,,,198.31498249992728,198.9113391659921,199.2095002499409,left,0.29305095796007663,None,demo2,001,2025-01-26_16h43.44.651,contrast_sensitivity,2024.2.4,None,2025-01-26 16h43.52.942056 -0500,
1e-08,1,0.1,194,14,3,left,0.36704879195895046,None,3,14,194,24,199.21884983300697,,,,199.21134275000077,199.807104040985,200.17945254093502,left,0.36704879195895046,None,demo2,001,2025-01-26_16h43.44.651,contrast_sensitivity,2024.2.4,None,2025-01-26 16h43.52.942056 -0500,
1.0,-1,0.4,195,15,3,left,0.372278125025332,None,3,15,195,11,200.18985454097856,,,,200.18110979092307,200.7779629159486,201.15929133293685,left,0.372278125025332,None,demo2,001,2025-01-26_16h43.44.651,contrast_sensitivity,2024.2.4,None,2025-01-26 16h43.52.942056 -0500,
1e-08,-1,0.1,196,16,3,left,0.34739812498446554,None,3,16,196,30,201.1680059999926,,,,201.16136699996423,201.7568684159778,202.10934262501542,left,0.34739812498446554,None,demo2,001,2025-01-26_16h43.44.651,contrast_sensitivity,2024.2.4,None,2025-01-26 16h43.52.942056 -0500,
0.0001,-1,0.4,197,17,3,left,0.6339825419709086,None,3,17,197,7,202.11799774994142,,,,202.11132270796224,202.707106249989,203.34691641596146,left,0.6339825419709086,None,demo2,001,2025-01-26_16h43.44.651,contrast_sensitivity,2024.2.4,None,2025-01-26 16h43.52.942056 -0500,
0.1,-1,0.025,198,18,3,left,0.442843500059098,None,3,18,198,58,203.35696429095697,,,,203.3488217080012,203.94529120798688,204.39292945794296,left,0.442843500059098,None,demo2,001,2025-01-26_16h43.44.651,contrast_sensitivity,2024.2.4,None,2025-01-26 16h43.52.942056 -0500,
0.0001,1,0.025,199,19,3,left,0.5986820419784635,None,3,19,199,49,204.4023208329454,,,,204.394856791012,204.99038491596002,205.59277195797767,left,0.5986820419784635,None,demo2,001,2025-01-26_16h43.44.651,contrast_sensitivity,2024.2.4,None,2025-01-26 16h43.52.942056 -0500,
0.05,1,0.4,200,20,3,right,0.21629212494008243,None,3,20,200,3,205.60135587491095,,,,205.59472424990963,206.19070383301005,206.40951349993702,right,0.21629212494008243,None,demo2,001,2025-01-26_16h43.44.651,contrast_sensitivity,2024.2.4,None,2025-01-26 16h43.52.942056 -0500,
0.05,1,0.025,201,21,3,right,0.4130489589879289,None,3,21,201,51,206.41807070793584,,,,206.41132216597907,207.00699279096443,207.42556470795535,right,0.4130489589879289,None,demo2,001,2025-01-26_16h43.44.651,contrast_sensitivity,2024.2.4,None,2025-01-26 16h43.52.942056 -0500,
0.05,-1,0.025,202,22,3,right,0.617240083985962,None,3,22,202,57,207.43440845794976,,,,207.4275249579223,208.02370858297218,208.64575324999169,right,0.617240083985962,None,demo2,001,2025-01-26_16h43.44.651,contrast_sensitivity,2024.2.4,None,2025-01-26 16h43.52.942056 -0500,
0.1,1,0.2,203,23,3,right,0.26243216707371175,None,3,23,203,16,208.65677008300554,,,,208.64741049997974,209.24452658300288,209.5096607080195,right,0.26243216707371175,None,demo2,001,2025-01-26_16h43.44.651,contrast_sensitivity,2024.2.4,None,2025-01-26 16h43.52.942056 -0500,
0.01,1,0.1,204,24,3,right,0.5289579589152709,None,3,24,204,26,209.51806137501262,,,,209.5115342909703,210.1069790829206,210.64252533297986,right,0.5289579589152709,None,demo2,001,2025-01-26_16h43.44.651,contrast_sensitivity,2024.2.4,None,2025-01-26 16h43.52.942056 -0500,
0.01,1,0.05,205,25,3,right,0.44849612505640835,None,3,25,205,38,210.6512997909449,,,,210.6444377079606,211.24041154095903,211.69245020800736,right,0.44849612505640835,None,demo2,001,2025-01-26_16h43.44.651,contrast_sensitivity,2024.2.4,None,2025-01-26 16h43.52.942056 -0500,
0.01,1,0.2,206,26,3,right,0.6085375410038978,None,3,26,206,14,211.70084908301942,,,,211.6943838329753,212.29034883296117,212.90885645791423,right,0.6085375410038978,None,demo2,001,2025-01-26_16h43.44.651,contrast_sensitivity,2024.2.4,None,2025-01-26 16h43.52.942056 -0500,
0.01,-1,0.05,207,27,3,left,0.6078637919854373,None,3,27,207,44,212.91758483299054,,,,212.91079170792364,213.5070884579327,214.1261480830144,left,0.6078637919854373,None,demo2,001,2025-01-26_16h43.44.651,contrast_sensitivity,2024.2.4,None,2025-01-26 16h43.52.942056 -0500,
0.1,-1,0.2,208,28,3,left,0.7058005830040202,None,3,28,208,22,214.1345834999811,,,,214.1280197079759,214.72401212493423,215.44194445793983,left,0.7058005830040202,None,demo2,001,2025-01-26_16h43.44.651,contrast_sensitivity,2024.2.4,None,2025-01-26 16h43.52.942056 -0500,
1e-08,-1,0.05,209,29,3,left,0.4343708330998197,None,3,29,209,42,215.45018375001382,,,,215.4438280829927,216.0404681660002,216.47994370793458,left,0.4343708330998197,None,demo2,001,2025-01-26_16h43.44.651,contrast_sensitivity,2024.2.4,None,2025-01-26 16h43.52.942056 -0500,
0.05,1,0.1,210,30,3,right,0.4672157500172034,None,3,30,210,27,216.4892989579821,,,,216.48196370794903,217.07855899992865,217.55889029090758,right,0.4672157500172034,None,demo2,001,2025-01-26_16h43.44.651,contrast_sensitivity,2024.2.4,None,2025-01-26 16h43.52.942056 -0500,
0.05,1,0.05,211,31,3,right,0.37961079191882163,None,3,31,211,39,217.5676031659823,,,,217.56082066590898,218.15719037491363,218.54235945793334,right,0.37961079191882163,None,demo2,001,2025-01-26_16h43.44.651,contrast_sensitivity,2024.2.4,None,2025-01-26 16h43.52.942056 -0500,
0.0001,1,0.4,212,32,3,right,0.5532817499479279,None,3,32,212,1,218.55101908301003,,,,218.54437999997754,219.14041562494822,219.69574045797344,right,0.5532817499479279,None,demo2,001,2025-01-26_16h43.44.651,contrast_sensitivity,2024.2.4,None,2025-01-26 16h43.52.942056 -0500,
1.0,-1,0.1,213,33,3,left,0.36738875007722527,None,3,33,213,35,219.70707733300515,,,,219.6977437499445,220.2902959579369,220.66285799990874,left,0.36738875007722527,None,demo2,001,2025-01-26_16h43.44.651,contrast_sensitivity,2024.2.4,None,2025-01-26 16h43.52.942056 -0500,
1.0,-1,0.05,214,34,3,left,0.36561891704332083,None,3,34,214,47,220.6734924579505,,,,220.66483954095747,221.26204683294054,221.62942733301315,left,0.36561891704332083,None,demo2,001,2025-01-26_16h43.44.651,contrast_sensitivity,2024.2.4,None,2025-01-26 16h43.52.942056 -0500,
1.0,-1,0.2,215,35,3,left,0.35999904095660895,None,3,35,215,23,221.64014708297327,,,,221.6312209579628,222.22868787497282,222.59271499991883,left,0.35999904095660895,None,demo2,001,2025-01-26_16h43.44.651,contrast_sensitivity,2024.2.4,None,2025-01-26 16h43.52.942056 -0500,
1e-08,1,0.2,216,36,3,right,0.30130920896772295,None,3,36,216,12,222.60136962495744,,,,222.59462508291472,223.19029391591903,223.49526654090732,right,0.30130920896772295,None,demo2,001,2025-01-26_16h43.44.651,contrast_sensitivity,2024.2.4,None,2025-01-26 16h43.52.942056 -0500,
0.0001,-1,0.05,217,37,3,right,0.4181104169692844,None,3,37,217,43,223.50702233298216,,,,223.49722291599028,224.0904616250191,224.51249529095367,right,0.4181104169692844,None,demo2,001,2025-01-26_16h43.44.651,contrast_sensitivity,2024.2.4,None,2025-01-26 16h43.52.942056 -0500,
0.01,-1,0.1,218,38,3,right,0.4797805000562221,None,3,38,218,32,224.52367495791987,,,,224.51452641596552,225.10694695799612,225.59242074994836,right,0.4797805000562221,None,demo2,001,2025-01-26_16h43.44.651,contrast_sensitivity,2024.2.4,None,2025-01-26 16h43.52.942056 -0500,
0.1,1,0.1,219,39,3,right,0.3411495410837233,None,3,39,219,28,225.6009807079099,,,,225.5945709159132,226.1903658329975,226.54211537493393,right,0.3411495410837233,None,demo2,001,2025-01-26_16h43.44.651,contrast_sensitivity,2024.2.4,None,2025-01-26 16h43.52.942056 -0500,
0.1,1,0.4,220,40,3,right,0.24620837497059256,None,3,40,220,4,226.55168108292855,,,,226.54406687500887,227.14042466599494,227.3929273330141,right,0.24620837497059256,None,demo2,001,2025-01-26_16h43.44.651,contrast_sensitivity,2024.2.4,None,2025-01-26 16h43.52.942056 -0500,
0.0001,-1,0.025,221,41,3,right,0.38811983296182007,None,3,41,221,55,227.40112474991474,,,,227.39462033298332,227.99036833294667,228.38038670795504,right,0.38811983296182007,None,demo2,001,2025-01-26_16h43.44.651,contrast_sensitivity,2024.2.4,None,2025-01-26 16h43.52.942056 -0500,
0.1,1,0.05,222,42,3,right,0.3926864169770852,None,3,42,222,40,228.39010774996132,,,,228.38219116593245,228.977819624939,229.3754046249669,right,0.3926864169770852,None,demo2,001,2025-01-26_16h43.44.651,contrast_sensitivity,2024.2.4,None,2025-01-26 16h43.52.942056 -0500,
0.01,1,0.4,223,43,3,right,0.45989812503103167,None,3,43,223,2,229.38376258302014,,,,229.37716904096305,229.9739092909731,230.4420394579647,right,0.45989812503103167,None,demo2,001,2025-01-26_16h43.44.651,contrast_sensitivity,2024.2.4,None,2025-01-26 16h43.52.942056 -0500,
1e-08,1,0.025,224,44,3,left,0.5539572500856593,None,3,44,224,48,230.45091299992055,,,,230.4440922079375,231.04044358292595,231.59583424997982,left,0.5539572500856593,None,demo2,001,2025-01-26_16h43.44.651,contrast_sensitivity,2024.2.4,None,2025-01-26 16h43.52.942056 -0500,
1.0,1,0.2,225,45,3,right,0.22475920896977186,None,3,45,225,17,231.6070381659083,,,,231.59786783298478,232.19469512498472,232.42554733296856,right,0.22475920896977186,None,demo2,001,2025-01-26_16h43.44.651,contrast_sensitivity,2024.2.4,None,2025-01-26 16h43.52.942056 -0500,
0.1,-1,0.05,226,46,3,left,0.21952120901551098,None,3,46,226,46,232.43341079098172,,,,232.42738320794888,233.023838041001,233.2458698329283,left,0.21952120901551098,None,demo2,001,2025-01-26_16h43.44.651,contrast_sensitivity,2024.2.4,None,2025-01-26 16h43.52.942056 -0500,
1e-08,-1,0.4,227,47,3,left,0.9665182500611991,None,3,47,227,6,233.25706166599412,,,,233.24793891597074,233.84587504097726,234.82606495800428,left,0.9665182500611991,None,demo2,001,2025-01-26_16h43.44.651,contrast_sensitivity,2024.2.4,None,2025-01-26 16h43.52.942056 -0500,
0.0001,1,0.2,228,48,3,right,0.22776870802044868,None,3,48,228,13,234.83502299990505,,,,234.8281797079835,235.42369183292612,235.65946716594044,right,0.22776870802044868,None,demo2,001,2025-01-26_16h43.44.651,contrast_sensitivity,2024.2.4,None,2025-01-26 16h43.52.942056 -0500,
0.05,-1,0.05,229,49,3,left,0.19933591596782207,None,3,49,229,45,235.66786808299366,,,,235.66127445793245,236.25699808297213,236.4596329999622,left,0.19933591596782207,None,demo2,001,2025-01-26_16h43.44.651,contrast_sensitivity,2024.2.4,None,2025-01-26 16h43.52.942056 -0500,
0.05,1,0.2,230,50,3,right,0.0322687920415774,None,3,50,230,15,236.46820137498435,,,,236.46151616598945,237.0570519999601,237.09213537501637,right,0.0322687920415774,None,demo2,001,2025-01-26_16h43.44.651,contrast_sensitivity,2024.2.4,None,2025-01-26 16h43.52.942056 -0500,
0.05,-1,0.4,231,51,3,left,0.21794875001069158,None,3,51,231,9,237.1005684999982,,,,237.09389508294407,237.690357125015,237.91350124997552,left,0.21794875001069158,None,demo2,001,2025-01-26_16h43.44.651,contrast_sensitivity,2024.2.4,None,2025-01-26 16h43.52.942056 -0500,
1.0,1,0.05,232,52,3,right,0.19169337500352412,None,3,52,232,41,237.9225930829998,,,,237.91542979096994,238.51074095792137,238.70872812496964,right,0.19169337500352412,None,demo2,001,2025-01-26_16h43.44.651,contrast_sensitivity,2024.2.4,None,2025-01-26 16h43.52.942056 -0500,
0.05,-1,0.1,233,53,3,left,0.12717841693665832,None,3,53,233,33,238.71723670791835,,,,238.71067433292046,239.30705412500538,239.44289008295164,left,0.12717841693665832,None,demo2,001,2025-01-26_16h43.44.651,contrast_sensitivity,2024.2.4,None,2025-01-26 16h43.52.942056 -0500,
0.1,-1,0.4,234,54,3,left,0.10905916709452868,None,3,54,234,10,239.4517131659668,,,,239.44503866601735,240.04029624990653,240.15863758290652,left,0.10905916709452868,None,demo2,001,2025-01-26_16h43.44.651,contrast_sensitivity,2024.2.4,None,2025-01-26 16h43.52.942056 -0500,
1e-08,-1,0.025,235,55,3,left,0.41506883304100484,None,3,55,235,54,240.16735029092524,,,,240.1606232909253,240.77415904100053,241.19312191591598,left,0.41506883304100484,None,demo2,001,2025-01-26_16h43.44.651,contrast_sensitivity,2024.2.4,None,2025-01-26 16h43.52.942056 -0500,
1e-08,1,0.05,236,56,3,left,0.6609303749864921,None,3,56,236,36,241.2016028749058,,,,241.19505474995822,241.7903840409126,242.4587667499436,left,0.6609303749864921,None,demo2,001,2025-01-26_16h43.44.651,contrast_sensitivity,2024.2.4,None,2025-01-26 16h43.52.942056 -0500,
1e-08,1,0.4,237,57,3,right,0.43262608302757144,None,3,57,237,0,242.46742533298675,,,,242.46071712498087,243.05750649992842,243.4928426250117,right,0.43262608302757144,None,demo2,001,2025-01-26_16h43.44.651,contrast_sensitivity,2024.2.4,None,2025-01-26 16h43.52.942056 -0500,
0.0001,1,0.1,238,58,3,right,0.33175954094622284,None,3,58,238,25,243.5014341659844,,,,243.49473379098345,244.0903521250002,244.42503854096867,right,0.33175954094622284,None,demo2,001,2025-01-26_16h43.44.651,contrast_sensitivity,2024.2.4,None,2025-01-26 16h43.52.942056 -0500,
1.0,1,0.025,239,59,3,right,0.33535358402878046,None,3,59,239,53,244.43198637501337,,,,244.42682941595558,245.02373124996666,245.36328337492887,right,0.33535358402878046,None,demo2,001,2025-01-26_16h43.44.651,contrast_sensitivity,2024.2.4,None,2025-01-26 16h43.52.942056 -0500,
0.05,-1,0.1,240,0,4,left,0.3748035420430824,None,4,0,240,33,245.3734986659838,,,,245.3652879159199,245.96206129097845,246.3425284579862,left,0.3748035420430824,None,demo2,001,2025-01-26_16h43.44.651,contrast_sensitivity,2024.2.4,None,2025-01-26 16h43.52.942056 -0500,
1.0,-1,0.025,241,1,4,left,0.25360458297654986,None,4,1,241,59,246.35089995793533,,,,246.344433540944,246.94043429091107,247.19600724999327,left,0.25360458297654986,None,demo2,001,2025-01-26_16h43.44.651,contrast_sensitivity,2024.2.4,None,2025-01-26 16h43.52.942056 -0500,
0.01,-1,0.4,242,2,4,left,0.4101106249727309,None,4,2,242,8,247.20674074999988,,,,247.1982918329304,247.7949337499449,248.20923958299682,left,0.4101106249727309,None,demo2,001,2025-01-26_16h43.44.651,contrast_sensitivity,2024.2.4,None,2025-01-26 16h43.52.942056 -0500,
1.0,1,0.4,243,3,4,right,0.1609605000121519,None,4,3,243,5,248.21844374993816,,,,248.21198962500785,248.80709379096515,248.97598495800048,right,0.1609605000121519,None,demo2,001,2025-01-26_16h43.44.651,contrast_sensitivity,2024.2.4,None,2025-01-26 16h43.52.942056 -0500,
1e-08,-1,0.1,244,4,4,right,0.5520127080380917,None,4,4,244,30,248.9842495409539,,,,248.97773225000128,249.57393874996342,250.13002587493975,right,0.5520127080380917,None,demo2,001,2025-01-26_16h43.44.651,contrast_sensitivity,2024.2.4,None,2025-01-26 16h43.52.942056 -0500,
0.05,1,0.4,245,5,4,right,0.2501086249249056,None,4,5,245,3,250.14015283295885,,,,250.13220883300528,250.7278641659068,250.99198962491937,right,0.2501086249249056,None,demo2,001,2025-01-26_16h43.44.651,contrast_sensitivity,2024.2.4,None,2025-01-26 16h43.52.942056 -0500,
0.05,-1,0.2,246,6,4,left,0.30337520805187523,None,4,6,246,21,251.0001420410117,,,,250.99389120796695,251.59054499992635,251.89574199996423,left,0.30337520805187523,None,demo2,001,2025-01-26_16h43.44.651,contrast_sensitivity,2024.2.4,None,2025-01-26 16h43.52.942056 -0500,
0.1,-1,0.025,247,7,4,left,1.1437090409453958,None,4,7,247,58,251.90684433293063,,,,251.89763191598468,252.49034020793624,253.6419776659459,left,1.1437090409453958,None,demo2,001,2025-01-26_16h43.44.651,contrast_sensitivity,2024.2.4,None,2025-01-26 16h43.52.942056 -0500,
1e-08,-1,0.025,248,8,4,right,0.3054280410287902,None,4,8,248,54,253.65046916599385,,,,253.64394208299927,254.2404600000009,254.55980012496002,right,0.3054280410287902,None,demo2,001,2025-01-26_16h43.44.651,contrast_sensitivity,2024.2.4,None,2025-01-26 16h43.52.942056 -0500,
1e-08,1,0.1,249,9,4,left,0.5517841669498011,None,4,9,249,24,254.56857895792928,,,,254.56186770799104,255.15707629092503,255.71260833297856,left,0.5517841669498011,None,demo2,001,2025-01-26_16h43.44.651,contrast_sensitivity,2024.2.4,None,2025-01-26 16h43.52.942056 -0500,
0.05,-1,0.4,250,10,4,left,0.26333870796952397,None,4,10,250,9,255.72364358301274,,,,255.7146643329179,256.31147299997974,256.5783459999366,left,0.26333870796952397,None,demo2,001,2025-01-26_16h43.44.651,contrast_sensitivity,2024.2.4,None,2025-01-26 16h43.52.942056 -0500,
0.01,-1,0.1,251,11,4,left,0.49009395798202604,None,4,11,251,32,256.59044391592033,,,,256.5803802500013,257.17368483298924,257.6754539159592,left,0.49009395798202604,None,demo2,001,2025-01-26_16h43.44.651,contrast_sensitivity,2024.2.4,None,2025-01-26 16h43.52.942056 -0500,
0.01,1,0.1,252,12,4,left,0.6281250420724973,None,4,12,252,26,257.68468104093336,,,,257.67735433299094,258.2738208329538,258.9091509159189,left,0.6281250420724973,None,demo2,001,2025-01-26_16h43.44.651,contrast_sensitivity,2024.2.4,None,2025-01-26 16h43.52.942056 -0500,
0.0001,-1,0.4,253,13,4,left,0.26380779210012406,None,4,13,253,7,258.9179141250206,,,,258.91113058291376,259.50700058299117,259.7762167910114,left,0.26380779210012406,None,demo2,001,2025-01-26_16h43.44.651,contrast_sensitivity,2024.2.4,None,2025-01-26 16h43.52.942056 -0500,
0.01,1,0.05,254,14,4,right,0.26601891592144966,None,4,14,254,38,259.78547295799945,,,,259.77819066599477,260.37376724998467,260.6432766659418,right,0.26601891592144966,None,demo2,001,2025-01-26_16h43.44.651,contrast_sensitivity,2024.2.4,None,2025-01-26 16h43.52.942056 -0500,
0.01,-1,0.025,255,15,4,left,0.3239973329473287,None,4,15,255,56,260.65194462495856,,,,260.64546662499197,261.24071395793,261.575723332935,left,0.3239973329473287,None,demo2,001,2025-01-26_16h43.44.651,contrast_sensitivity,2024.2.4,None,2025-01-26 16h43.52.942056 -0500,
0.05,1,0.05,256,16,4,left,0.5539536670548841,None,4,16,256,39,261.5843459579628,,,,261.57780249998905,262.17372095794417,262.72944929101504,left,0.5539536670548841,None,demo2,001,2025-01-26_16h43.44.651,contrast_sensitivity,2024.2.4,None,2025-01-26 16h43.52.942056 -0500,
0.0001,-1,0.025,257,17,4,left,0.5980279999785125,None,4,17,257,55,262.73978279100265,,,,262.73134583292995,263.3276638749521,263.9295114579145,left,0.5980279999785125,None,demo2,001,2025-01-26_16h43.44.651,contrast_sensitivity,2024.2.4,None,2025-01-26 16h43.52.942056 -0500,
0.1,-1,0.1,258,18,4,left,0.2291474170051515,None,4,18,258,34,263.94025529094506,,,,263.93156633293256,264.5236462500179,264.7589958750177,left,0.2291474170051515,None,demo2,001,2025-01-26_16h43.44.651,contrast_sensitivity,2024.2.4,None,2025-01-26 16h43.52.942056 -0500,
0.1,1,0.4,259,19,4,right,0.1566432910040021,None,4,19,259,4,264.76765950000845,,,,264.7609490000177,265.35699179093353,265.5256666659843,right,0.1566432910040021,None,demo2,001,2025-01-26_16h43.44.651,contrast_sensitivity,2024.2.4,None,2025-01-26 16h43.52.942056 -0500,
0.1,1,0.025,260,20,4,left,0.40683429199270904,None,4,20,260,52,265.5336348749697,,,,265.5275737079792,266.1238147079712,266.54310937493574,left,0.40683429199270904,None,demo2,001,2025-01-26_16h43.44.651,contrast_sensitivity,2024.2.4,None,2025-01-26 16h43.52.942056 -0500,
1.0,1,0.05,261,21,4,right,0.2022373330546543,None,4,21,261,41,266.55167720792815,,,,266.5450261660153,267.1403399159899,267.3455227909144,right,0.2022373330546543,None,demo2,001,2025-01-26_16h43.44.651,contrast_sensitivity,2024.2.4,None,2025-01-26 16h43.52.942056 -0500,
0.0001,1,0.05,262,22,4,right,0.46513933304231614,None,4,22,262,37,267.356905582943,,,,267.3474275409244,267.94041604094673,268.4092556249816,right,0.46513933304231614,None,demo2,001,2025-01-26_16h43.44.651,contrast_sensitivity,2024.2.4,None,2025-01-26 16h43.52.942056 -0500,
0.01,1,0.4,263,23,4,right,0.1705219589639455,None,4,23,263,2,268.41748495795764,,,,268.41099945793394,269.00701829092577,269.1793744160095,right,0.1705219589639455,None,demo2,001,2025-01-26_16h43.44.651,contrast_sensitivity,2024.2.4,None,2025-01-26 16h43.52.942056 -0500,
1e-08,-1,0.4,264,24,4,right,0.3028252499643713,None,4,24,264,6,269.1903224999551,,,,269.1814135409659,269.77771437494084,270.092219165992,right,0.3028252499643713,None,demo2,001,2025-01-26_16h43.44.651,contrast_sensitivity,2024.2.4,None,2025-01-26 16h43.52.942056 -0500,
1e-08,-1,0.05,265,25,4,left,0.32384429103694856,None,4,25,265,42,270.10121724999044,,,,270.0944565410027,270.69064779090695,271.0262990000192,left,0.32384429103694856,None,demo2,001,2025-01-26_16h43.44.651,contrast_sensitivity,2024.2.4,None,2025-01-26 16h43.52.942056 -0500,
0.0001,-1,0.1,266,26,4,left,0.30302316590677947,None,4,26,266,31,271.0348387080012,,,,271.02825687499717,271.6244053749833,271.9297937909141,left,0.30302316590677947,None,demo2,001,2025-01-26_16h43.44.651,contrast_sensitivity,2024.2.4,None,2025-01-26 16h43.52.942056 -0500,
0.1,-1,0.4,267,27,4,left,0.082058041007258,None,4,27,267,10,271.94039958296344,,,,271.93184179090895,272.5284009159077,272.6130640829215,left,0.082058041007258,None,demo2,001,2025-01-26_16h43.44.651,contrast_sensitivity,2024.2.4,None,2025-01-26 16h43.52.942056 -0500,
1.0,-1,0.05,268,28,4,left,0.2342320829629898,None,4,28,268,47,272.6235008329386,,,,272.6149846659973,273.21121341595426,273.45982741599437,left,0.2342320829629898,None,demo2,001,2025-01-26_16h43.44.651,contrast_sensitivity,2024.2.4,None,2025-01-26 16h43.52.942056 -0500,
0.01,-1,0.2,269,29,4,right,0.5232310000574216,None,4,29,269,20,273.47405720793176,,,,273.46180445794016,274.05716216599103,274.5923390829703,right,0.5232310000574216,None,demo2,001,2025-01-26_16h43.44.651,contrast_sensitivity,2024.2.4,None,2025-01-26 16h43.52.942056 -0500,
0.1,1,0.2,270,30,4,right,0.17179854202549905,None,4,30,270,16,274.6008994579315,,,,274.5944457500009,275.1905724579701,275.3755078749964,right,0.17179854202549905,None,demo2,001,2025-01-26_16h43.44.651,contrast_sensitivity,2024.2.4,None,2025-01-26 16h43.52.942056 -0500,
0.05,-1,0.05,271,31,4,left,1.4666469160001725,None,4,31,271,45,275.38412008294836,,,,275.37737866595853,275.9736621659249,277.44293575000484,left,1.4666469160001725,None,demo2,001,2025-01-26_16h43.44.651,contrast_sensitivity,2024.2.4,None,2025-01-26 16h43.52.942056 -0500,
0.01,1,0.2,272,32,4,right,0.47287383303046227,None,4,32,272,14,277.45181341597345,,,,277.4450057079084,278.04047116590664,278.5253921659896,right,0.47287383303046227,None,demo2,001,2025-01-26_16h43.44.651,contrast_sensitivity,2024.2.4,None,2025-01-26 16h43.52.942056 -0500,
0.1,-1,0.05,273,33,4,left,0.38759974995628,None,4,33,273,46,278.5342912079068,,,,278.52739204093814,279.123662665952,279.5257990829414,left,0.38759974995628,None,demo2,001,2025-01-26_16h43.44.651,contrast_sensitivity,2024.2.4,None,2025-01-26 16h43.52.942056 -0500,
0.0001,1,0.2,274,34,4,right,0.40556437510531396,None,4,34,274,13,279.5348457079381,,,,279.5279495830182,280.1237162499456,280.54344191600103,right,0.40556437510531396,None,demo2,001,2025-01-26_16h43.44.651,contrast_sensitivity,2024.2.4,None,2025-01-26 16h43.52.942056 -0500,
1e-08,1,0.05,275,35,4,left,0.5608952919719741,None,4,35,275,36,280.5515805829782,,,,280.5452675409615,281.140448207967,281.7093234579079,left,0.5608952919719741,None,demo2,001,2025-01-26_16h43.44.651,contrast_sensitivity,2024.2.4,None,2025-01-26 16h43.52.942056 -0500,
1e-08,1,0.2,276,36,4,left,0.47922391700558364,None,4,36,276,12,281.7175549999811,,,,281.71114666596986,282.30713991599623,282.7920775410021,left,0.47922391700558364,None,demo2,001,2025-01-26_16h43.44.651,contrast_sensitivity,2024.2.4,None,2025-01-26 16h43.52.942056 -0500,
0.05,1,0.2,277,37,4,right,0.39888495800551027,None,4,37,277,15,282.80060170800425,,,,282.79394570796285,283.39033420791384,283.7932634159224,right,0.39888495800551027,None,demo2,001,2025-01-26_16h43.44.651,contrast_sensitivity,2024.2.4,None,2025-01-26 16h43.52.942056 -0500,
0.0001,-1,0.2,278,38,4,right,0.39781624998431653,None,4,38,278,19,283.80721637501847,,,,283.7951219580136,284.3903745409334,284.79203658294864,right,0.39781624998431653,None,demo2,001,2025-01-26_16h43.44.651,contrast_sensitivity,2024.2.4,None,2025-01-26 16h43.52.942056 -0500,
0.0001,1,0.1,279,39,4,right,0.5576163330115378,None,4,39,279,25,284.8008765829727,,,,284.7940205829218,285.3904922499787,285.95880270795897,right,0.5576163330115378,None,demo2,001,2025-01-26_16h43.44.651,contrast_sensitivity,2024.2.4,None,2025-01-26 16h43.52.942056 -0500,
0.1,-1,0.2,280,40,4,left,0.24609754199627787,None,4,40,280,22,285.9674672909314,,,,285.96078645798843,286.5571529159788,286.8087432079483,left,0.24609754199627787,None,demo2,001,2025-01-26_16h43.44.651,contrast_sensitivity,2024.2.4,None,2025-01-26 16h43.52.942056 -0500,
1e-08,1,0.4,281,41,4,left,0.46690637501887977,None,4,41,281,0,286.8171434579417,,,,286.81055912491865,287.4071515830001,287.8792927499162,left,0.46690637501887977,None,demo2,001,2025-01-26_16h43.44.651,contrast_sensitivity,2024.2.4,None,2025-01-26 16h43.52.942056 -0500,
0.01,-1,0.05,282,42,4,left,0.5190387499751523,None,4,42,282,44,287.890252333018,,,,287.88127137499396,288.4780791659141,289.00938075000886,left,0.5190387499751523,None,demo2,001,2025-01-26_16h43.44.651,contrast_sensitivity,2024.2.4,None,2025-01-26 16h43.52.942056 -0500,
1.0,-1,0.4,283,43,4,left,0.3376727909781039,None,4,43,283,11,289.01761620794423,,,,289.01116749993525,289.60732674994506,289.9474267499754,left,0.3376727909781039,None,demo2,001,2025-01-26_16h43.44.651,contrast_sensitivity,2024.2.4,None,2025-01-26 16h43.52.942056 -0500,
0.05,1,0.025,284,44,4,right,0.38386625004932284,None,4,44,284,51,289.95595737500116,,,,289.94920824992005,290.54520083300304,290.9423016249202,right,0.38386625004932284,None,demo2,001,2025-01-26_16h43.44.651,contrast_sensitivity,2024.2.4,None,2025-01-26 16h43.52.942056 -0500,
0.1,1,0.1,285,45,4,right,0.4192666249582544,None,4,45,285,28,290.9517213329673,,,,290.9444103749702,291.54069316596724,291.9624877499882,right,0.4192666249582544,None,demo2,001,2025-01-26_16h43.44.651,contrast_sensitivity,2024.2.4,None,2025-01-26 16h43.52.942056 -0500,
1.0,1,0.1,286,46,4,right,0.4941255000885576,None,4,46,286,29,291.9739360829117,,,,291.96442554099485,292.5569627499208,293.05949841591064,right,0.4941255000885576,None,demo2,001,2025-01-26_16h43.44.651,contrast_sensitivity,2024.2.4,None,2025-01-26 16h43.52.942056 -0500,
1.0,-1,0.1,287,47,4,left,0.31311579199973494,None,4,47,287,35,293.06799162493553,,,,293.06158424995374,293.6569656250067,293.9753456659382,left,0.31311579199973494,None,demo2,001,2025-01-26_16h43.44.651,contrast_sensitivity,2024.2.4,None,2025-01-26 16h43.52.942056 -0500,
0.0001,1,0.025,288,48,4,right,0.43430674995761365,None,4,48,288,49,293.98356545798015,,,,293.97716483299155,294.57398004096467,295.01300333300605,right,0.43430674995761365,None,demo2,001,2025-01-26_16h43.44.651,contrast_sensitivity,2024.2.4,None,2025-01-26 16h43.52.942056 -0500,
0.01,1,0.025,289,49,4,right,0.3332645829068497,None,4,49,289,50,295.0236164579401,,,,295.01490125001874,295.6116075000027,295.9594489579322,right,0.3332645829068497,None,demo2,001,2025-01-26_16h43.44.651,contrast_sensitivity,2024.2.4,None,2025-01-26 16h43.52.942056 -0500,
0.05,-1,0.025,290,50,4,left,0.420776457991451,None,4,50,290,57,295.96801470790524,,,,295.961284082965,296.5570771249477,296.9928049159935,left,0.420776457991451,None,demo2,001,2025-01-26_16h43.44.651,contrast_sensitivity,2024.2.4,None,2025-01-26 16h43.52.942056 -0500,
0.05,1,0.1,291,51,4,right,0.45441195904277265,None,4,51,291,27,297.00142683298327,,,,296.9948107909877,297.59041108295787,298.04627708299085,right,0.45441195904277265,None,demo2,001,2025-01-26_16h43.44.651,contrast_sensitivity,2024.2.4,None,2025-01-26 16h43.52.942056 -0500,
1.0,1,0.025,292,52,4,right,0.45571083296090364,None,4,52,292,53,298.0569567499915,,,,298.0482080410002,298.64526933291927,299.10879354097415,right,0.45571083296090364,None,demo2,001,2025-01-26_16h43.44.651,contrast_sensitivity,2024.2.4,None,2025-01-26 16h43.52.942056 -0500,
0.1,1,0.05,293,53,4,right,0.2440290420781821,None,4,53,293,40,299.11765049991664,,,,299.1108612079406,299.70696008298546,299.959480957943,right,0.2440290420781821,None,demo2,001,2025-01-26_16h43.44.651,contrast_sensitivity,2024.2.4,None,2025-01-26 16h43.52.942056 -0500,
1.0,1,0.2,294,54,4,right,0.35226687497925013,None,4,54,294,17,299.9680589159252,,,,299.9615230410127,300.5570984999649,300.9133040829329,right,0.35226687497925013,None,demo2,001,2025-01-26_16h43.44.651,contrast_sensitivity,2024.2.4,None,2025-01-26 16h43.52.942056 -0500,
0.0001,1,0.4,295,55,4,right,0.17854754102881998,None,4,55,295,1,300.92278445791453,,,,300.91500754095614,301.51025020796806,301.692722916021,right,0.17854754102881998,None,demo2,001,2025-01-26_16h43.44.651,contrast_sensitivity,2024.2.4,None,2025-01-26 16h43.52.942056 -0500,
1.0,-1,0.2,296,56,4,left,0.36636087496299297,None,4,56,296,23,301.7009520829888,,,,301.69454674993176,302.2903888329165,302.65923354099505,left,0.36636087496299297,None,demo2,001,2025-01-26_16h43.44.651,contrast_sensitivity,2024.2.4,None,2025-01-26 16h43.52.942056 -0500,
1e-08,-1,0.2,297,57,4,left,0.3805700420634821,None,4,57,297,18,302.6677111249883,,,,302.6609597079223,303.25722766597755,303.64206845790613,left,0.3805700420634821,None,demo2,001,2025-01-26_16h43.44.651,contrast_sensitivity,2024.2.4,None,2025-01-26 16h43.52.942056 -0500,
1e-08,1,0.025,298,58,4,right,0.2831054999260232,None,4,58,298,48,303.65073824999854,,,,303.6439092499204,304.24055012501776,304.5262354579754,right,0.2831054999260232,None,demo2,001,2025-01-26_16h43.44.651,contrast_sensitivity,2024.2.4,None,2025-01-26 16h43.52.942056 -0500,
0.0001,-1,0.05,299,59,4,right,0.3549443749943748,None,4,59,299,43,304.53434762498364,,,,304.52811633294914,305.1236972080078,305.4805248749908,right,0.3549443749943748,None,demo2,001,2025-01-26_16h43.44.651,contrast_sensitivity,2024.2.4,None,2025-01-26 16h43.52.942056 -0500,
0.05,-1,0.4,300,0,5,left,0.29707329208031297,None,5,0,300,9,305.4892771659652,,,,305.48232070798986,306.0776439579204,306.3788399579935,left,0.29707329208031297,None,demo2,001,2025-01-26_16h43.44.651,contrast_sensitivity,2024.2.4,None,2025-01-26 16h43.52.942056 -0500,
0.01,1,0.2,301,1,5,right,0.2881733749527484,None,5,1,301,14,306.3902552080108,,,,306.3808441659203,306.9785715829348,307.27588391595054,right,0.2881733749527484,None,demo2,001,2025-01-26_16h43.44.651,contrast_sensitivity,2024.2.4,None,2025-01-26 16h43.52.942056 -0500,
1e-08,-1,0.05,302,2,5,left,0.6409744169795886,None,5,2,302,42,307.2853222079575,,,,307.27824570797384,307.87372391601093,308.5252633750206,left,0.6409744169795886,None,demo2,001,2025-01-26_16h43.44.651,contrast_sensitivity,2024.2.4,None,2025-01-26 16h43.52.942056 -0500,
1e-08,1,0.05,303,3,5,right,0.2182754169916734,None,5,3,303,36,308.53411845793016,,,,308.527248499915,309.124086374999,309.34657924994826,right,0.2182754169916734,None,demo2,001,2025-01-26_16h43.44.651,contrast_sensitivity,2024.2.4,None,2025-01-26 16h43.52.942056 -0500,
1e-08,-1,0.1,304,4,5,left,0.6050503340084106,None,5,4,304,30,309.35688462492544,,,,309.3485220830189,309.9446064999793,310.559623332927,left,0.6050503340084106,None,demo2,001,2025-01-26_16h43.44.651,contrast_sensitivity,2024.2.4,None,2025-01-26 16h43.52.942056 -0500,
0.0001,1,0.2,305,5,5,left,0.9024399169720709,None,5,5,305,13,310.5681830829708,,,,310.56154341599904,311.1570645410102,312.0628848329652,left,0.9024399169720709,None,demo2,001,2025-01-26_16h43.44.651,contrast_sensitivity,2024.2.4,None,2025-01-26 16h43.52.942056 -0500,
1e-08,-1,0.025,306,6,5,right,0.9145172500284389,None,5,6,306,54,312.0736731250072,,,,312.06494066596497,312.66200112493243,313.57972254091874,right,0.9145172500284389,None,demo2,001,2025-01-26_16h43.44.651,contrast_sensitivity,2024.2.4,None,2025-01-26 16h43.52.942056 -0500,
1.0,-1,0.025,307,7,5,left,0.42941658303607255,None,5,7,307,59,313.590339624905,,,,313.58173616591375,314.1780328329187,314.6115170830162,left,0.42941658303607255,None,demo2,001,2025-01-26_16h43.44.651,contrast_sensitivity,2024.2.4,None,2025-01-26 16h43.52.942056 -0500,
1e-08,1,0.2,308,8,5,right,0.3466905419481918,None,5,8,308,12,314.62298829096835,,,,314.61283300002106,315.20690633298364,315.55921620794106,right,0.3466905419481918,None,demo2,001,2025-01-26_16h43.44.651,contrast_sensitivity,2024.2.4,None,2025-01-26 16h43.52.942056 -0500,
1.0,-1,0.05,309,9,5,left,0.35245008300989866,None,5,9,309,47,315.56806616601534,,,,315.5613370409701,316.1569673329359,316.5131623749621,left,0.35245008300989866,None,demo2,001,2025-01-26_16h43.44.651,contrast_sensitivity,2024.2.4,None,2025-01-26 16h43.52.942056 -0500,
0.05,1,0.2,310,10,5,right,0.28727141593117267,None,5,10,310,15,316.5237347079674,,,,316.51495941600297,317.1111324579688,317.40878924995195,right,0.28727141593117267,None,demo2,001,2025-01-26_16h43.44.651,contrast_sensitivity,2024.2.4,None,2025-01-26 16h43.52.942056 -0500,
1e-08,1,0.025,311,11,5,left,0.42343750002328306,None,5,11,311,48,317.4171987499576,,,,317.41075762500986,318.0069764580112,318.4421025830088,left,0.42343750002328306,None,demo2,001,2025-01-26_16h43.44.651,contrast_sensitivity,2024.2.4,None,2025-01-26 16h43.52.942056 -0500,
0.05,-1,0.1,312,12,5,left,0.3770342499483377,None,5,12,312,33,318.45059837494045,,,,318.4440931659192,319.0403394160094,319.42605716595426,left,0.3770342499483377,None,demo2,001,2025-01-26_16h43.44.651,contrast_sensitivity,2024.2.4,None,2025-01-26 16h43.52.942056 -0500,
0.01,1,0.025,313,13,5,left,0.37152708310168236,None,5,13,313,50,319.43521949998103,,,,319.4283412079094,320.02378204092383,320.4091497909976,left,0.37152708310168236,None,demo2,001,2025-01-26_16h43.44.651,contrast_sensitivity,2024.2.4,None,2025-01-26 16h43.52.942056 -0500,
0.0001,-1,0.4,314,14,5,right,0.5732350000180304,None,5,14,314,7,320.4180389579851,,,,320.4112194159534,321.00706229091156,321.59232570801396,right,0.5732350000180304,None,demo2,001,2025-01-26_16h43.44.651,contrast_sensitivity,2024.2.4,None,2025-01-26 16h43.52.942056 -0500,
0.1,1,0.05,315,15,5,right,0.37604341690894216,None,5,15,315,40,321.6000452499138,,,,321.59415162494406,322.19033554091584,322.5761594999349,right,0.37604341690894216,None,demo2,001,2025-01-26_16h43.44.651,contrast_sensitivity,2024.2.4,None,2025-01-26 16h43.52.942056 -0500,
0.05,1,0.4,316,16,5,right,0.357612416963093,None,5,16,316,3,322.5850753749255,,,,322.5782382909674,323.17364687495865,323.54232204100117,right,0.357612416963093,None,demo2,001,2025-01-26_16h43.44.651,contrast_sensitivity,2024.2.4,None,2025-01-26 16h43.52.942056 -0500,
0.1,-1,0.2,317,17,5,left,0.30908120807725936,None,5,17,317,22,323.5518935410073,,,,323.5444774159696,324.14025929092895,324.4586891660001,left,0.30908120807725936,None,demo2,001,2025-01-26_16h43.44.651,contrast_sensitivity,2024.2.4,None,2025-01-26 16h43.52.942056 -0500,
0.1,-1,0.1,318,18,5,left,0.299145209020935,None,5,18,318,34,324.4675998329185,,,,324.460740624927,325.0570764580043,325.35872862499673,left,0.299145209020935,None,demo2,001,2025-01-26_16h43.44.651,contrast_sensitivity,2024.2.4,None,2025-01-26 16h43.52.942056 -0500,
0.05,1,0.025,319,19,5,left,0.346678041969426,None,5,19,319,51,325.3677751249634,,,,325.3610067080008,325.95689041598234,326.3093843329698,left,0.346678041969426,None,demo2,001,2025-01-26_16h43.44.651,contrast_sensitivity,2024.2.4,None,2025-01-26 16h43.52.942056 -0500,
0.01,-1,0.025,320,20,5,left,0.3620056250365451,None,5,20,320,56,326.31774474994745,,,,326.31142354093026,326.90715270792134,327.2758042080095,left,0.3620056250365451,None,demo2,001,2025-01-26_16h43.44.651,contrast_sensitivity,2024.2.4,None,2025-01-26 16h43.52.942056 -0500,
0.01,1,0.1,321,21,5,right,0.3295298330485821,None,5,21,321,26,327.28429354098625,,,,327.27771633293014,327.8737521249568,328.2095258749323,right,0.3295298330485821,None,demo2,001,2025-01-26_16h43.44.651,contrast_sensitivity,2024.2.4,None,2025-01-26 16h43.52.942056 -0500,
0.0001,-1,0.05,322,22,5,right,0.5238571249647066,None,5,22,322,43,328.21792474994436,,,,328.2114332499914,328.80625037499703,329.3427328329999,right,0.5238571249647066,None,demo2,001,2025-01-26_16h43.44.651,contrast_sensitivity,2024.2.4,None,2025-01-26 16h43.52.942056 -0500,
0.0001,1,0.025,323,23,5,left,0.29292795807123184,None,5,23,323,49,329.35139441594947,,,,329.3445918749785,329.9402299999492,330.24272670794744,left,0.29292795807123184,None,demo2,001,2025-01-26_16h43.44.651,contrast_sensitivity,2024.2.4,None,2025-01-26 16h43.52.942056 -0500,
1e-08,-1,0.2,324,24,5,left,0.37035020790062845,None,5,24,324,18,330.2519178749062,,,,330.2446795409778,330.8576864999486,331.22975858300924,left,0.37035020790062845,None,demo2,001,2025-01-26_16h43.44.651,contrast_sensitivity,2024.2.4,None,2025-01-26 16h43.52.942056 -0500,
0.0001,-1,0.1,325,25,5,left,0.4353302080417052,None,5,25,325,31,331.24025749997236,,,,331.2316775409272,331.823690332938,332.26274529099464,left,0.4353302080417052,None,demo2,001,2025-01-26_16h43.44.651,contrast_sensitivity,2024.2.4,None,2025-01-26 16h43.52.942056 -0500,
1.0,-1,0.2,326,26,5,left,0.35102362500038,None,5,26,326,23,332.2736017910065,,,,332.2645954999607,332.8609905829653,333.22570045792963,left,0.35102362500038,None,demo2,001,2025-01-26_16h43.44.651,contrast_sensitivity,2024.2.4,None,2025-01-26 16h43.52.942056 -0500,
0.05,1,0.1,327,27,5,right,0.2932547921082005,None,5,27,327,27,333.2348308749497,,,,333.22794037498534,333.82386775000487,334.12574966601096,right,0.2932547921082005,None,demo2,001,2025-01-26_16h43.44.651,contrast_sensitivity,2024.2.4,None,2025-01-26 16h43.52.942056 -0500,
0.01,-1,0.4,328,28,5,left,0.2785244999686256,None,5,28,328,8,334.1345448750071,,,,334.1277815409703,334.72365254093893,335.0093489160063,left,0.2785244999686256,None,demo2,001,2025-01-26_16h43.44.651,contrast_sensitivity,2024.2.4,None,2025-01-26 16h43.52.942056 -0500,
0.0001,1,0.4,329,29,5,right,0.5878929999889806,None,5,29,329,1,335.01790374994744,,,,335.01118320797104,335.60702537500765,336.20905712491367,right,0.5878929999889806,None,demo2,001,2025-01-26_16h43.44.651,contrast_sensitivity,2024.2.4,None,2025-01-26 16h43.52.942056 -0500,
0.01,-1,0.05,330,30,5,left,0.9971756250597537,None,5,30,330,44,336.2177779999329,,,,336.21120195800904,336.80692012491636,337.80942874995526,left,0.9971756250597537,None,demo2,001,2025-01-26_16h43.44.651,contrast_sensitivity,2024.2.4,None,2025-01-26 16h43.52.942056 -0500,
0.0001,1,0.1,331,31,5,left,1.2684309580363333,None,5,31,331,25,337.8183207910042,,,,337.8115922079887,338.40707962494344,339.6797266249778,left,1.2684309580363333,None,demo2,001,2025-01-26_16h43.44.651,contrast_sensitivity,2024.2.4,None,2025-01-26 16h43.52.942056 -0500,
1e-08,1,0.4,332,32,5,right,0.47703025001101196,None,5,32,332,0,339.6902780829696,,,,339.68171187501866,340.27784283296205,340.75959287490696,right,0.47703025001101196,None,demo2,001,2025-01-26_16h43.44.651,contrast_sensitivity,2024.2.4,None,2025-01-26 16h43.52.942056 -0500,
0.1,-1,0.05,333,33,5,left,0.4025994580006227,None,5,33,333,46,340.77387974993326,,,,340.7615132499486,341.3571127499454,341.76227516599465,left,0.4025994580006227,None,demo2,001,2025-01-26_16h43.44.651,contrast_sensitivity,2024.2.4,None,2025-01-26 16h43.52.942056 -0500,
0.1,1,0.4,334,34,5,right,0.46074987505562603,None,5,34,334,4,341.77357695798855,,,,341.764263540972,342.361061124946,342.82555237493943,right,0.46074987505562603,None,demo2,001,2025-01-26_16h43.44.651,contrast_sensitivity,2024.2.4,None,2025-01-26 16h43.52.942056 -0500,
1e-08,-1,0.4,335,35,5,right,0.5533350000623614,None,5,35,335,6,342.84057766594924,,,,342.827373374952,343.4234395829262,343.9790856660111,right,0.5533350000623614,None,demo2,001,2025-01-26_16h43.44.651,contrast_sensitivity,2024.2.4,None,2025-01-26 16h43.52.942056 -0500,
0.01,1,0.4,336,36,5,left,0.39308841701131314,None,5,36,336,2,343.9903618330136,,,,343.9811467080144,344.57779754092917,344.9761676249327,left,0.39308841701131314,None,demo2,001,2025-01-26_16h43.44.651,contrast_sensitivity,2024.2.4,None,2025-01-26 16h43.52.942056 -0500,
0.05,1,0.05,337,37,5,right,0.5960882080253214,None,5,37,337,39,344.9844606659608,,,,344.97800045798067,345.573715290986,346.17527399992105,right,0.5960882080253214,None,demo2,001,2025-01-26_16h43.44.651,contrast_sensitivity,2024.2.4,None,2025-01-26 16h43.52.942056 -0500,
0.0001,-1,0.025,338,38,5,left,0.5282019160222262,None,5,38,338,55,346.18367470800877,,,,346.17704454099294,346.7736770409392,347.3086273749359,left,0.5282019160222262,None,demo2,001,2025-01-26_16h43.44.651,contrast_sensitivity,2024.2.4,None,2025-01-26 16h43.52.942056 -0500,
0.1,1,0.025,339,39,5,right,0.7495491669978946,None,5,39,339,52,347.31738024996594,,,,347.31052787497174,347.90710491593927,348.65950008295476,right,0.7495491669978946,None,demo2,001,2025-01-26_16h43.44.651,contrast_sensitivity,2024.2.4,None,2025-01-26 16h43.52.942056 -0500,
1.0,1,0.025,340,40,5,right,0.4657187080010772,None,5,40,340,53,348.66792508296203,,,,348.66132524993736,349.2569290829124,349.7262326659402,right,0.4657187080010772,None,demo2,001,2025-01-26_16h43.44.651,contrast_sensitivity,2024.2.4,None,2025-01-26 16h43.52.942056 -0500,
0.01,-1,0.2,341,41,5,right,0.4908439579885453,None,5,41,341,20,349.7348478749627,,,,349.7281480409438,350.32372237497475,350.82571587502025,right,0.4908439579885453,None,demo2,001,2025-01-26_16h43.44.651,contrast_sensitivity,2024.2.4,None,2025-01-26 16h43.52.942056 -0500,
0.05,-1,0.05,342,42,5,left,0.4349260419839993,None,5,42,342,45,350.8338223330211,,,,350.8275226659607,351.42371337499935,351.8640421249438,left,0.4349260419839993,None,demo2,001,2025-01-26_16h43.44.651,contrast_sensitivity,2024.2.4,None,2025-01-26 16h43.52.942056 -0500,
0.01,-1,0.1,343,43,5,right,0.33861016703303903,None,5,43,343,32,351.87257374997716,,,,351.86595329095144,352.4630998329958,352.80930245795753,right,0.33861016703303903,None,demo2,001,2025-01-26_16h43.44.651,contrast_sensitivity,2024.2.4,None,2025-01-26 16h43.52.942056 -0500,
0.1,-1,0.4,344,44,5,left,0.26765833399258554,None,5,44,344,10,352.81783474993426,,,,352.8110917499289,353.4068897499237,353.6803448749706,left,0.26765833399258554,None,demo2,001,2025-01-26_16h43.44.651,contrast_sensitivity,2024.2.4,None,2025-01-26 16h43.52.942056 -0500,
0.0001,1,0.05,345,45,5,right,0.37685816606972367,None,5,45,345,37,353.68920749996323,,,,353.682280833018,354.27780541591346,354.65936945797876,right,0.37685816606972367,None,demo2,001,2025-01-26_16h43.44.651,contrast_sensitivity,2024.2.4,None,2025-01-26 16h43.52.942056 -0500,
0.1,1,0.2,346,46,5,right,0.1797255410347134,None,5,46,346,16,354.6690884999698,,,,354.66155041591264,355.2569149999181,355.4427732909098,right,0.1797255410347134,None,demo2,001,2025-01-26_16h43.44.651,contrast_sensitivity,2024.2.4,None,2025-01-26 16h43.52.942056 -0500,
1.0,1,0.1,347,47,5,right,0.09009708394296467,None,5,47,347,29,355.4515625409549,,,,355.44484370795544,356.04036570794415,356.14276787498966,right,0.09009708394296467,None,demo2,001,2025-01-26_16h43.44.651,contrast_sensitivity,2024.2.4,None,2025-01-26 16h43.52.942056 -0500,
0.05,-1,0.025,348,48,5,right,0.9122756250435486,None,5,48,348,57,356.1510017499095,,,,356.1445832080208,356.7403374579735,357.6586783749517,right,0.9122756250435486,None,demo2,001,2025-01-26_16h43.44.651,contrast_sensitivity,2024.2.4,None,2025-01-26 16h43.52.942056 -0500,
1.0,1,0.4,349,49,5,right,0.03941899992059916,None,5,49,349,5,357.6672554159304,,,,357.66047583299223,358.25700195797253,358.3094000829151,right,0.03941899992059916,None,demo2,001,2025-01-26_16h43.44.651,contrast_sensitivity,2024.2.4,None,2025-01-26 16h43.52.942056 -0500,
0.1,1,0.1,350,50,5,right,0.2700269160559401,None,5,50,350,28,358.3178784579504,,,,358.3114125409629,358.90735683299135,359.18012245791033,right,0.2700269160559401,None,demo2,001,2025-01-26_16h43.44.651,contrast_sensitivity,2024.2.4,None,2025-01-26 16h43.52.942056 -0500,
1e-08,1,0.1,351,51,5,left,0.6326122499303892,None,5,51,351,24,359.1902115829289,,,,359.18205387494527,359.77776541595813,360.41276466601994,left,0.6326122499303892,None,demo2,001,2025-01-26_16h43.44.651,contrast_sensitivity,2024.2.4,None,2025-01-26 16h43.52.942056 -0500,
0.0001,-1,0.2,352,52,5,left,0.30335995799396187,None,5,52,352,19,360.423587749945,,,,360.41474391601514,361.0069948330056,361.31211829092354,left,0.30335995799396187,None,demo2,001,2025-01-26_16h43.44.651,contrast_sensitivity,2024.2.4,None,2025-01-26 16h43.52.942056 -0500,
1.0,-1,0.4,353,53,5,left,0.2403385000070557,None,5,53,353,11,361.3237077499507,,,,361.31487341597676,361.9069910829421,362.1586014579516,left,0.2403385000070557,None,demo2,001,2025-01-26_16h43.44.651,contrast_sensitivity,2024.2.4,None,2025-01-26 16h43.52.942056 -0500,
1.0,1,0.05,354,54,5,right,0.24832495802547783,None,5,54,354,41,362.1674249159405,,,,362.16065262490883,362.7571038749302,363.0092189999996,right,0.24832495802547783,None,demo2,001,2025-01-26_16h43.44.651,contrast_sensitivity,2024.2.4,None,2025-01-26 16h43.52.942056 -0500,
1.0,1,0.2,355,55,5,right,0.32216362503822893,None,5,55,355,17,363.01684470800683,,,,363.01088212500326,363.60708658292424,363.9427973330021,right,0.32216362503822893,None,demo2,001,2025-01-26_16h43.44.651,contrast_sensitivity,2024.2.4,None,2025-01-26 16h43.52.942056 -0500,
0.1,-1,0.025,356,56,5,right,0.36399600002914667,None,5,56,356,58,363.95210187498014,,,,363.944738916005,364.540308040916,364.9093932909891,right,0.36399600002914667,None,demo2,001,2025-01-26_16h43.44.651,contrast_sensitivity,2024.2.4,None,2025-01-26 16h43.52.942056 -0500,
0.01,1,0.05,357,57,5,left,0.37375791696831584,None,5,57,357,38,364.91888183297124,,,,364.9114823329728,365.51269162492827,365.89196662500035,left,0.37375791696831584,None,demo2,001,2025-01-26_16h43.44.651,contrast_sensitivity,2024.2.4,None,2025-01-26 16h43.52.942056 -0500,
0.05,-1,0.2,358,58,5,left,0.291189374984242,None,5,58,358,21,365.9004554579733,,,,365.8937579159392,366.4901053329231,366.79276308300905,left,0.291189374984242,None,demo2,001,2025-01-26_16h43.44.651,contrast_sensitivity,2024.2.4,None,2025-01-26 16h43.52.942056 -0500,
1.0,-1,0.1,359,59,5,left,0.4441443330142647,None,5,59,359,35,366.80134466593154,,,,366.7946679579327,367.39018712495454,367.84191787499003,left,0.4441443330142647,None,demo2,001,2025-01-26_16h43.44.651,contrast_sensitivity,2024.2.4,None,2025-01-26 16h43.52.942056 -0500,
