contrast,location,size,thisN,thisTrialN,thisRepN,response.keys,response.rt,response.duration,trials.thisRepN,trials.thisTrialN,trials.thisN,trials.thisIndex,thisRow.t,notes,begin_experiment.started,begin_experiment.stopped,trial.started,response.started,trial.stopped,trials.response.keys,trials.response.rt,trials.response.duration,participant,session,date,expName,psychopyVersion,frameRate,expStart,
,,,,,,,,,,,,,,,0.00901099992915988,1.023130957968533,,,,,,,demo2,001,2025-01-26_16h15.23.030,contrast_sensitivity,2024.2.4,None,2025-01-26 16h15.28.484449 -0500,
1.0,1,0.2,0,0,0,right,0.32535729196388274,None,0,0,0,17,1.0361156669678167,,,,1.0303405419690534,1.617948874947615,1.9460473749786615,right,0.32535729196388274,None,demo2,001,2025-01-26_16h15.23.030,contrast_sensitivity,2024.2.4,None,2025-01-26 16h15.28.484449 -0500,
1e-08,1,0.05,1,1,0,left,0.6646551659796387,None,0,1,1,36,1.9549047918990254,,,,1.9481247919611633,2.5436997920041904,3.212584082968533,left,0.6646551659796387,None,demo2,001,2025-01-26_16h15.23.030,contrast_sensitivity,2024.2.4,None,2025-01-26 16h15.28.484449 -0500,
1.0,-1,0.05,2,2,0,left,0.3144653330091387,None,0,2,2,47,3.2215164579683915,,,,3.2145689169410616,3.81072933296673,4.129796499968506,left,0.3144653330091387,None,demo2,001,2025-01-26_16h15.23.030,contrast_sensitivity,2024.2.4,None,2025-01-26 16h15.28.484449 -0500,
1.0,1,0.05,3,3,0,right,0.15697812498547137,None,0,3,3,41,4.1464583749184385,,,,4.13182762498036,4.727185416966677,4.896258791908622,right,0.15697812498547137,None,demo2,001,2025-01-26_16h15.23.030,contrast_sensitivity,2024.2.4,None,2025-01-26 16h15.28.484449 -0500,
1.0,-1,0.025,4,4,0,left,0.310259958030656,None,0,4,4,59,4.910610749968328,,,,4.898128916975111,5.494049625005573,5.812379957991652,left,0.310259958030656,None,demo2,001,2025-01-26_16h15.23.030,contrast_sensitivity,2024.2.4,None,2025-01-26 16h15.28.484449 -0500,
0.0001,-1,0.2,5,5,0,left,0.461799249984324,None,0,5,5,19,5.821237082942389,,,,5.8145223329775035,6.410428666975349,6.879692124901339,left,0.461799249984324,None,demo2,001,2025-01-26_16h15.23.030,contrast_sensitivity,2024.2.4,None,2025-01-26 16h15.28.484449 -0500,
0.05,1,0.05,6,6,0,right,0.32063537498470396,None,0,6,6,39,6.893942583003081,,,,6.881219832925126,7.477403791970573,7.812533207936212,right,0.32063537498470396,None,demo2,001,2025-01-26_16h15.23.030,contrast_sensitivity,2024.2.4,None,2025-01-26 16h15.28.484449 -0500,
0.0001,1,0.1,7,7,0,right,0.44121562491636723,None,0,7,7,25,7.820555874961428,,,,7.814663416938856,8.415008042007685,8.862900791922584,right,0.44121562491636723,None,demo2,001,2025-01-26_16h15.23.030,contrast_sensitivity,2024.2.4,None,2025-01-26 16h15.28.484449 -0500,
1e-08,1,0.4,8,8,0,left,0.32560016599018127,None,0,8,8,0,8.87152220797725,,,,8.864935124991462,9.460528332972899,9.795524207991548,left,0.32560016599018127,None,demo2,001,2025-01-26_16h15.23.030,contrast_sensitivity,2024.2.4,None,2025-01-26 16h15.28.484449 -0500,
0.05,-1,0.2,9,9,0,left,0.050214583054184914,None,0,9,9,21,9.803019042010419,,,,9.797587667009793,10.41080145793967,10.46663441695273,left,0.050214583054184914,None,demo2,001,2025-01-26_16h15.23.030,contrast_sensitivity,2024.2.4,None,2025-01-26 16h15.28.484449 -0500,
1.0,-1,0.1,10,10,0,left,0.07583591598086059,None,0,10,10,35,10.476971666910686,,,,10.468726249993779,11.06534983299207,11.146395707968622,left,0.07583591598086059,None,demo2,001,2025-01-26_16h15.23.030,contrast_sensitivity,2024.2.4,None,2025-01-26 16h15.28.484449 -0500,
1e-08,-1,0.05,11,11,0,right,0.5749327499652281,None,0,11,11,42,11.154562167008407,,,,11.148244124953635,11.744054417009465,12.329459832981229,right,0.5749327499652281,None,demo2,001,2025-01-26_16h15.23.030,contrast_sensitivity,2024.2.4,None,2025-01-26 16h15.28.484449 -0500,
1e-08,-1,0.2,12,12,0,left,0.4598368749720976,None,0,12,12,18,12.338443207903765,,,,12.331605332903564,12.927282207994722,13.395871082902886,left,0.4598368749720976,None,demo2,001,2025-01-26_16h15.23.030,contrast_sensitivity,2024.2.4,None,2025-01-26 16h15.28.484449 -0500,
1.0,-1,0.2,13,13,0,left,0.08894158306065947,None,0,13,13,23,13.404319416964427,,,,13.39796116692014,13.993895708001219,14.09579924994614,left,0.08894158306065947,None,demo2,001,2025-01-26_16h15.23.030,contrast_sensitivity,2024.2.4,None,2025-01-26 16h15.28.484449 -0500,
0.0001,1,0.4,14,14,0,right,0.14886812504846603,None,0,14,14,1,14.101589957950637,,,,14.097350582946092,14.694102125009522,14.84636154200416,right,0.14886812504846603,None,demo2,001,2025-01-26_16h15.23.030,contrast_sensitivity,2024.2.4,None,2025-01-26 16h15.28.484449 -0500,
0.05,-1,0.1,15,15,0,left,0.1858269580407068,None,0,15,15,33,14.854579207953066,,,,14.848436374915764,15.444094332982786,15.633324957918376,left,0.1858269580407068,None,demo2,001,2025-01-26_16h15.23.030,contrast_sensitivity,2024.2.4,None,2025-01-26 16h15.28.484449 -0500,
0.01,1,0.4,16,16,0,right,0.14845354203134775,None,0,16,16,2,15.643694416969083,,,,15.635473583010025,16.23147070792038,16.382999666966498,right,0.14845354203134775,None,demo2,001,2025-01-26_16h15.23.030,contrast_sensitivity,2024.2.4,None,2025-01-26 16h15.28.484449 -0500,
1.0,1,0.1,17,17,0,right,1.1565912499791011,None,0,17,17,29,16.393710208008997,,,,16.3842897079885,16.994217208004557,18.163318874896504,right,1.1565912499791011,None,demo2,001,2025-01-26_16h15.23.030,contrast_sensitivity,2024.2.4,None,2025-01-26 16h15.28.484449 -0500,
0.05,-1,0.05,18,18,0,left,0.42025766603183,None,0,18,18,45,18.177228541928343,,,,18.164542791899294,18.760538749978878,19.196405666996725,left,0.42025766603183,None,demo2,001,2025-01-26_16h15.23.030,contrast_sensitivity,2024.2.4,None,2025-01-26 16h15.28.484449 -0500,
1.0,1,0.025,19,19,0,right,0.42193691595457494,None,0,19,19,53,19.21060337498784,,,,19.198296916903928,19.79383445798885,20.219931041938253,right,0.42193691595457494,None,demo2,001,2025-01-26_16h15.23.030,contrast_sensitivity,2024.2.4,None,2025-01-26 16h15.28.484449 -0500,
0.01,1,0.05,20,20,0,left,0.35676241701003164,None,0,20,20,38,20.225911957910284,,,,20.221064749988727,20.814075083006173,21.179528582957573,left,0.35676241701003164,None,demo2,001,2025-01-26_16h15.23.030,contrast_sensitivity,2024.2.4,None,2025-01-26 16h15.28.484449 -0500,
0.1,1,0.2,21,21,0,right,0.3475490000564605,None,0,21,21,16,21.187484416994266,,,,21.181798374978825,21.77720504195895,22.12938137492165,right,0.3475490000564605,None,demo2,001,2025-01-26_16h15.23.030,contrast_sensitivity,2024.2.4,None,2025-01-26 16h15.28.484449 -0500,
1.0,1,0.4,22,22,0,right,0.3884413340128958,None,0,22,22,5,22.13755595800467,,,,22.131402666913345,22.727254792000167,23.12964520789683,right,0.3884413340128958,None,demo2,001,2025-01-26_16h15.23.030,contrast_sensitivity,2024.2.4,None,2025-01-26 16h15.28.484449 -0500,
0.01,-1,0.1,23,23,0,left,0.7085986249148846,None,0,23,23,32,23.137825082987547,,,,23.131710624904372,23.72716504195705,24.446260416996665,left,0.7085986249148846,None,demo2,001,2025-01-26_16h15.23.030,contrast_sensitivity,2024.2.4,None,2025-01-26 16h15.28.484449 -0500,
1e-08,-1,0.4,24,24,0,right,0.5697159580886364,None,0,24,24,6,24.454632624983788,,,,24.448462957981974,25.04395724995993,25.616357082966715,right,0.5697159580886364,None,demo2,001,2025-01-26_16h15.23.030,contrast_sensitivity,2024.2.4,None,2025-01-26 16h15.28.484449 -0500,
0.1,1,0.025,25,25,0,right,0.5326828749384731,None,0,25,25,52,25.627175957895815,,,,25.618288832949474,26.21047070797067,26.74595120793674,right,0.5326828749384731,None,demo2,001,2025-01-26_16h15.23.030,contrast_sensitivity,2024.2.4,None,2025-01-26 16h15.28.484449 -0500,
0.1,-1,0.2,26,26,0,left,0.5254849579650909,None,0,26,26,22,26.75432741700206,,,,26.747827999992296,27.34414454200305,27.878799207974225,left,0.5254849579650909,None,demo2,001,2025-01-26_16h15.23.030,contrast_sensitivity,2024.2.4,None,2025-01-26 16h15.28.484449 -0500,
0.1,1,0.05,27,27,0,right,0.3682892080396414,None,0,27,27,40,27.887360791908577,,,,27.880797707941383,28.477322749909945,28.84901337500196,right,0.3682892080396414,None,demo2,001,2025-01-26_16h15.23.030,contrast_sensitivity,2024.2.4,None,2025-01-26 16h15.28.484449 -0500,
0.01,1,0.025,28,28,0,left,0.5936409999849275,None,0,28,28,50,28.860558791900985,,,,28.85094112495426,29.44396299996879,30.04692629200872,left,0.5936409999849275,None,demo2,001,2025-01-26_16h15.23.030,contrast_sensitivity,2024.2.4,None,2025-01-26 16h15.28.484449 -0500,
0.1,-1,0.1,29,29,0,left,0.38903479208238423,None,0,29,29,34,30.055705291917548,,,,30.048801707918756,30.644544832990505,31.047082207980566,left,0.38903479208238423,None,demo2,001,2025-01-26_16h15.23.030,contrast_sensitivity,2024.2.4,None,2025-01-26 16h15.28.484449 -0500,
0.1,-1,0.4,30,30,0,left,0.307697374955751,None,0,30,30,10,31.054855082998984,,,,31.049094624933787,31.643809207947925,31.96268074994441,left,0.307697374955751,None,demo2,001,2025-01-26_16h15.23.030,contrast_sensitivity,2024.2.4,None,2025-01-26 16h15.28.484449 -0500,
0.1,-1,0.05,31,31,0,left,0.3589025419205427,None,0,31,31,46,31.970787166967057,,,,31.964716249960475,32.56062920799013,32.93038895796053,left,0.3589025419205427,None,demo2,001,2025-01-26_16h15.23.030,contrast_sensitivity,2024.2.4,None,2025-01-26 16h15.28.484449 -0500,
1.0,-1,0.4,32,32,0,left,0.36610737501177937,None,0,32,32,11,32.93865974992514,,,,32.93252204195596,33.544360416941345,33.91315820789896,left,0.36610737501177937,None,demo2,001,2025-01-26_16h15.23.030,contrast_sensitivity,2024.2.4,None,2025-01-26 16h15.28.484449 -0500,
1e-08,-1,0.1,33,33,0,right,0.3106848750030622,None,0,33,33,30,33.92170549998991,,,,33.91508158296347,34.51097162498627,34.829050999949686,right,0.3106848750030622,None,demo2,001,2025-01-26_16h15.23.030,contrast_sensitivity,2024.2.4,None,2025-01-26 16h15.28.484449 -0500,
1e-08,-1,0.025,34,34,0,right,0.7012757919728756,None,0,34,34,54,34.83662504190579,,,,34.8310201249551,35.42714166699443,36.13407249993179,right,0.7012757919728756,None,demo2,001,2025-01-26_16h15.23.030,contrast_sensitivity,2024.2.4,None,2025-01-26 16h15.28.484449 -0500,
0.0001,1,0.05,35,35,0,left,0.7425828340929002,None,0,35,35,37,36.14271954190917,,,,36.1360541669419,36.73202895792201,37.47968058299739,left,0.7425828340929002,None,demo2,001,2025-01-26_16h15.23.030,contrast_sensitivity,2024.2.4,None,2025-01-26 16h15.28.484449 -0500,
0.1,1,0.4,36,36,0,right,0.3231403339887038,None,0,36,36,4,37.488421791931614,,,,37.481832499965094,38.0772752079647,38.41286462498829,right,0.3231403339887038,None,demo2,001,2025-01-26_16h15.23.030,contrast_sensitivity,2024.2.4,None,2025-01-26 16h15.28.484449 -0500,
0.01,1,0.1,37,37,0,left,0.3118292500730604,None,0,37,37,26,38.420949707971886,,,,38.414680624962784,39.010696874931455,39.32974120799918,left,0.3118292500730604,None,demo2,001,2025-01-26_16h15.23.030,contrast_sensitivity,2024.2.4,None,2025-01-26 16h15.28.484449 -0500,
0.05,-1,0.025,38,38,0,left,0.39624595909845084,None,0,38,38,57,39.33743941690773,,,,39.33194566692691,39.927356166997924,40.32952862500679,left,0.39624595909845084,None,demo2,001,2025-01-26_16h15.23.030,contrast_sensitivity,2024.2.4,None,2025-01-26 16h15.28.484449 -0500,
0.1,-1,0.025,39,39,0,left,0.4304545000195503,None,0,39,39,58,40.338161457912065,,,,40.331557582947426,40.92716237495188,41.36301187495701,left,0.4304545000195503,None,demo2,001,2025-01-26_16h15.23.030,contrast_sensitivity,2024.2.4,None,2025-01-26 16h15.28.484449 -0500,
1e-08,1,0.025,40,40,0,left,0.5165783329866827,None,0,40,40,48,41.371589041897096,,,,41.365128582925536,41.96068533300422,42.47998320800252,left,0.5165783329866827,None,demo2,001,2025-01-26_16h15.23.030,contrast_sensitivity,2024.2.4,None,2025-01-26 16h15.28.484449 -0500,
0.05,1,0.4,41,41,0,right,0.3717925000237301,None,0,41,41,3,42.48795616696589,,,,42.481992166955024,43.094481082982384,43.479419666924514,right,0.3717925000237301,None,demo2,001,2025-01-26_16h15.23.030,contrast_sensitivity,2024.2.4,None,2025-01-26 16h15.28.484449 -0500,
0.0001,-1,0.1,42,42,0,left,0.45481445896439254,None,0,42,42,31,43.48722149990499,,,,43.48131691699382,44.07743574993219,44.54597204190213,left,0.45481445896439254,None,demo2,001,2025-01-26_16h15.23.030,contrast_sensitivity,2024.2.4,None,2025-01-26 16h15.28.484449 -0500,
0.0001,-1,0.4,43,43,0,left,0.30424687499180436,None,0,43,43,7,44.554867832921445,,,,44.54802083293907,45.143943124916404,45.462507249903865,left,0.30424687499180436,None,demo2,001,2025-01-26_16h15.23.030,contrast_sensitivity,2024.2.4,None,2025-01-26 16h15.28.484449 -0500,
0.01,-1,0.05,44,44,0,left,0.34038220799993724,None,0,44,44,44,45.471244249958545,,,,45.46441279200371,46.06077695800923,46.41308937501162,left,0.34038220799993724,None,demo2,001,2025-01-26_16h15.23.030,contrast_sensitivity,2024.2.4,None,2025-01-26 16h15.28.484449 -0500,
0.0001,-1,0.025,45,45,0,right,0.3197868330171332,None,0,45,45,55,46.42195329198148,,,,46.41529937495943,47.01135387492832,47.34577408293262,right,0.3197868330171332,None,demo2,001,2025-01-26_16h15.23.030,contrast_sensitivity,2024.2.4,None,2025-01-26 16h15.28.484449 -0500,
0.0001,1,0.025,46,46,0,right,0.7163069170201197,None,0,46,46,49,47.35451145796105,,,,47.347732416936196,47.94383304193616,48.66184395796154,right,0.7163069170201197,None,demo2,001,2025-01-26_16h15.23.030,contrast_sensitivity,2024.2.4,None,2025-01-26 16h15.28.484449 -0500,
0.01,-1,0.4,47,47,0,left,0.513698749942705,None,0,47,47,8,48.66951866692398,,,,48.663601082982495,49.26045062497724,49.78019533294719,left,0.513698749942705,None,demo2,001,2025-01-26_16h15.23.030,contrast_sensitivity,2024.2.4,None,2025-01-26 16h15.28.484449 -0500,
0.01,-1,0.025,48,48,0,left,0.49362208403181285,None,0,48,48,56,49.7940826669801,,,,49.78209962497931,50.377505042008124,50.87960779189598,left,0.49362208403181285,None,demo2,001,2025-01-26_16h15.23.030,contrast_sensitivity,2024.2.4,None,2025-01-26 16h15.28.484449 -0500,
0.0001,-1,0.05,49,49,0,left,0.7289224161067978,None,0,49,49,43,50.888500083005056,,,,50.88158229191322,51.47731579199899,52.212650249945,left,0.7289224161067978,None,demo2,001,2025-01-26_16h15.23.030,contrast_sensitivity,2024.2.4,None,2025-01-26 16h15.28.484449 -0500,
0.05,-1,0.4,50,50,0,left,0.46549541607964784,None,0,50,50,9,52.21890854195226,,,,52.21399483294226,52.81055708299391,53.27977204194758,left,0.46549541607964784,None,demo2,001,2025-01-26_16h15.23.030,contrast_sensitivity,2024.2.4,None,2025-01-26 16h15.28.484449 -0500,
0.1,1,0.1,51,51,0,right,0.36099087505135685,None,0,51,51,28,53.29388716700487,,,,53.28150745795574,53.89416029199492,54.26276854192838,right,0.36099087505135685,None,demo2,001,2025-01-26_16h15.23.030,contrast_sensitivity,2024.2.4,None,2025-01-26 16h15.28.484449 -0500,
1e-08,1,0.2,52,52,0,left,0.3665590410819277,None,0,52,52,12,54.27135529194493,,,,54.26479158294387,54.86056116700638,55.229728500009514,left,0.3665590410819277,None,demo2,001,2025-01-26_16h15.23.030,contrast_sensitivity,2024.2.4,None,2025-01-26 16h15.28.484449 -0500,
1e-08,1,0.1,53,53,0,left,0.5397297499002889,None,0,53,53,24,55.244013124960475,,,,55.23167137498967,55.82723920792341,56.37913487490732,left,0.5397297499002889,None,demo2,001,2025-01-26_16h15.23.030,contrast_sensitivity,2024.2.4,None,2025-01-26 16h15.28.484449 -0500,
0.05,1,0.025,54,54,0,left,0.7015860410174355,None,0,54,54,51,56.387621041969396,,,,56.38114674994722,56.977320957928896,57.68405049992725,left,0.7015860410174355,None,demo2,001,2025-01-26_16h15.23.030,contrast_sensitivity,2024.2.4,None,2025-01-26 16h15.28.484449 -0500,
0.0001,1,0.2,55,55,0,left,0.5339305000379682,None,0,55,55,13,57.69385241693817,,,,57.685881457990035,58.28198570793029,58.82994120800868,left,0.5339305000379682,None,demo2,001,2025-01-26_16h15.23.030,contrast_sensitivity,2024.2.4,None,2025-01-26 16h15.28.484449 -0500,
0.05,1,0.1,56,56,0,right,0.47575991705525666,None,0,56,56,27,58.83835904195439,,,,58.83205066691153,59.42717249994166,59.91297270799987,right,0.47575991705525666,None,demo2,001,2025-01-26_16h15.23.030,contrast_sensitivity,2024.2.4,None,2025-01-26 16h15.28.484449 -0500,
0.01,1,0.2,57,57,0,right,0.2882552919909358,None,0,57,57,14,59.921452041948214,,,,59.91492833290249,60.5106097079115,60.81330483290367,right,0.2882552919909358,None,demo2,001,2025-01-26_16h15.23.030,contrast_sensitivity,2024.2.4,None,2025-01-26 16h15.28.484449 -0500,
0.01,-1,0.2,58,58,0,right,1.0828640840481967,None,0,58,58,20,60.82710024993867,,,,60.81532620789949,61.41093945794273,62.49651199998334,right,1.0828640840481967,None,demo2,001,2025-01-26_16h15.23.030,contrast_sensitivity,2024.2.4,None,2025-01-26 16h15.28.484449 -0500,
0.05,1,0.2,59,59,0,right,0.45666941709350795,None,0,59,59,15,62.51056491700001,,,,62.49845895799808,63.09411512489896,63.562409417005256,right,0.45666941709350795,None,demo2,001,2025-01-26_16h15.23.030,contrast_sensitivity,2024.2.4,None,2025-01-26 16h15.28.484449 -0500,
1e-08,1,0.2,60,0,1,right,0.5471878329990432,None,1,0,60,12,63.57132066693157,,,,63.56458999996539,64.16075437492691,64.71164979191963,right,0.5471878329990432,None,demo2,001,2025-01-26_16h15.23.030,contrast_sensitivity,2024.2.4,None,2025-01-26 16h15.28.484449 -0500,
1e-08,-1,0.05,61,1,1,left,0.6339789589401335,None,1,1,61,42,64.71658466698136,,,,64.71343441691715,65.31084695796017,65.95022229198366,left,0.6339789589401335,None,demo2,001,2025-01-26_16h15.23.030,contrast_sensitivity,2024.2.4,None,2025-01-26 16h15.28.484449 -0500,
0.0001,1,0.1,62,2,1,left,0.5371577079640701,None,1,2,62,25,65.96030199993402,,,,65.95242754195351,66.5485752079403,67.09548595792148,left,0.5371577079640701,None,demo2,001,2025-01-26_16h15.23.030,contrast_sensitivity,2024.2.4,None,2025-01-26 16h15.28.484449 -0500,
0.05,1,0.2,63,3,1,right,0.4748152500251308,None,1,3,63,15,67.10390537499916,,,,67.09746974997688,67.69386729190592,68.1795305829728,right,0.4748152500251308,None,demo2,001,2025-01-26_16h15.23.030,contrast_sensitivity,2024.2.4,None,2025-01-26 16h15.28.484449 -0500,
0.01,1,0.1,64,4,1,right,0.6184859169879928,None,1,4,64,26,68.1879445000086,,,,68.18140399991535,68.77720120793674,69.40000895794947,right,0.6184859169879928,None,demo2,001,2025-01-26_16h15.23.030,contrast_sensitivity,2024.2.4,None,2025-01-26 16h15.28.484449 -0500,
1e-08,-1,0.2,65,5,1,right,0.7083497910061851,None,1,5,65,18,69.41050437500235,,,,69.40181574993767,69.99537266697735,70.71287149994168,right,0.7083497910061851,None,demo2,001,2025-01-26_16h15.23.030,contrast_sensitivity,2024.2.4,None,2025-01-26 16h15.28.484449 -0500,
1.0,1,0.1,66,6,1,right,0.586750291986391,None,1,6,66,29,70.72123941697646,,,,70.71496679191478,71.31086404190864,71.89965266699437,right,0.586750291986391,None,demo2,001,2025-01-26_16h15.23.030,contrast_sensitivity,2024.2.4,None,2025-01-26 16h15.28.484449 -0500,
1.0,1,0.025,67,7,1,right,0.6201812500366941,None,1,7,67,53,71.91045716695953,,,,71.90165270795114,72.49436933291145,73.11632845795248,right,0.6201812500366941,None,demo2,001,2025-01-26_16h15.23.030,contrast_sensitivity,2024.2.4,None,2025-01-26 16h15.28.484449 -0500,
0.1,-1,0.2,68,8,1,left,0.5233183749951422,None,1,8,68,22,73.12711045797914,,,,73.11828362499364,73.71525045798626,74.24575249990448,left,0.5233183749951422,None,demo2,001,2025-01-26_16h15.23.030,contrast_sensitivity,2024.2.4,None,2025-01-26 16h15.28.484449 -0500,
1e-08,-1,0.1,69,9,1,right,0.7607406249735504,None,1,9,69,30,74.25392141693737,,,,74.24763362493832,74.84381774999201,75.61274808296002,right,0.7607406249735504,None,demo2,001,2025-01-26_16h15.23.030,contrast_sensitivity,2024.2.4,None,2025-01-26 16h15.28.484449 -0500,
1.0,1,0.2,70,10,1,right,0.6149657500209287,None,1,10,70,17,75.6215037079528,,,,75.61474837490823,76.21054879191797,76.82983279193286,right,0.6149657500209287,None,demo2,001,2025-01-26_16h15.23.030,contrast_sensitivity,2024.2.4,None,2025-01-26 16h15.28.484449 -0500,
0.01,1,0.025,71,11,1,right,0.3857960000168532,None,1,11,71,50,76.83800200000405,,,,76.83198287501,77.42668295791373,77.81652254192159,right,0.3857960000168532,None,demo2,001,2025-01-26_16h15.23.030,contrast_sensitivity,2024.2.4,None,2025-01-26 16h15.28.484449 -0500,
1.0,-1,0.05,72,12,1,left,0.40105045901145786,None,1,12,72,47,77.82707695791032,,,,77.81837749993429,78.4154269999126,78.82913595798891,left,0.40105045901145786,None,demo2,001,2025-01-26_16h15.23.030,contrast_sensitivity,2024.2.4,None,2025-01-26 16h15.28.484449 -0500,
0.0001,-1,0.025,73,13,1,left,0.5234077500645071,None,1,13,73,55,78.83799520798493,,,,78.8311320419889,79.42725937499199,79.9631104998989,left,0.5234077500645071,None,demo2,001,2025-01-26_16h15.23.030,contrast_sensitivity,2024.2.4,None,2025-01-26 16h15.28.484449 -0500,
0.01,-1,0.1,74,14,1,right,0.9496714998967946,None,1,14,74,32,79.97186866693664,,,,79.9654294999782,80.56072091695387,81.5132857079152,right,0.9496714998967946,None,demo2,001,2025-01-26_16h15.23.030,contrast_sensitivity,2024.2.4,None,2025-01-26 16h15.28.484449 -0500,
0.05,1,0.1,75,15,1,right,0.5259388339472935,None,1,15,75,27,81.52222241694108,,,,81.51553400000557,82.11059029190801,82.64638795796782,right,0.5259388339472935,None,demo2,001,2025-01-26_16h15.23.030,contrast_sensitivity,2024.2.4,None,2025-01-26 16h15.28.484449 -0500,
0.01,-1,0.4,76,16,1,left,0.3655354999937117,None,1,16,76,8,82.65560866694432,,,,82.64854966697749,83.24383216700517,83.61318374995608,left,0.3655354999937117,None,demo2,001,2025-01-26_16h15.23.030,contrast_sensitivity,2024.2.4,None,2025-01-26 16h15.28.484449 -0500,
1.0,-1,0.2,77,17,1,left,0.49200504203327,None,1,17,77,23,83.62069195799995,,,,83.61522533290554,84.21051116695162,84.71199987491127,left,0.49200504203327,None,demo2,001,2025-01-26_16h15.23.030,contrast_sensitivity,2024.2.4,None,2025-01-26 16h15.28.484449 -0500,
0.05,1,0.05,78,18,1,right,0.3781902079936117,None,1,18,78,39,84.71881912497338,,,,84.71379220800009,85.3110634170007,85.69576254196,right,0.3781902079936117,None,demo2,001,2025-01-26_16h15.23.030,contrast_sensitivity,2024.2.4,None,2025-01-26 16h15.28.484449 -0500,
0.01,-1,0.05,79,19,1,right,0.619238542043604,None,1,19,79,44,85.70403779193293,,,,85.69770091690589,86.29402499995194,86.92989366699476,right,0.619238542043604,None,demo2,001,2025-01-26_16h15.23.030,contrast_sensitivity,2024.2.4,None,2025-01-26 16h15.28.484449 -0500,
0.0001,1,0.4,80,20,1,left,0.5470620829146355,None,1,20,80,1,86.94406291691121,,,,86.93184812495019,87.52734937495552,88.07919533294626,left,0.5470620829146355,None,demo2,001,2025-01-26_16h15.23.030,contrast_sensitivity,2024.2.4,None,2025-01-26 16h15.28.484449 -0500,
0.01,1,0.2,81,21,1,left,0.5320449160644785,None,1,21,81,14,88.08767233300023,,,,88.081066041952,88.67719754192512,89.21284208295401,left,0.5320449160644785,None,demo2,001,2025-01-26_16h15.23.030,contrast_sensitivity,2024.2.4,None,2025-01-26 16h15.28.484449 -0500,
1e-08,1,0.05,82,22,1,left,0.5322809579083696,None,1,22,82,36,89.22108595794998,,,,89.21474829199724,89.81086337496527,90.34681737492792,left,0.5322809579083696,None,demo2,001,2025-01-26_16h15.23.030,contrast_sensitivity,2024.2.4,None,2025-01-26 16h15.28.484449 -0500,
0.1,1,0.05,83,23,1,right,0.45832591701764613,None,1,23,83,40,90.35958670789842,,,,90.34803658293094,90.94387674995232,91.41276216693223,right,0.45832591701764613,None,demo2,001,2025-01-26_16h15.23.030,contrast_sensitivity,2024.2.4,None,2025-01-26 16h15.28.484449 -0500,
0.0001,-1,0.1,84,24,1,left,0.5172194170299917,None,1,24,84,31,91.42731991689652,,,,91.41381579195149,92.010870374972,92.53308191697579,left,0.5172194170299917,None,demo2,001,2025-01-26_16h15.23.030,contrast_sensitivity,2024.2.4,None,2025-01-26 16h15.28.484449 -0500,
0.0001,1,0.05,85,25,1,left,0.5570643750252202,None,1,25,85,37,92.54370729194488,,,,92.53530795790721,93.13220504194032,93.6956047079293,left,0.5570643750252202,None,demo2,001,2025-01-26_16h15.23.030,contrast_sensitivity,2024.2.4,None,2025-01-26 16h15.28.484449 -0500,
0.0001,1,0.2,86,26,1,right,0.5872282499913126,None,1,26,86,13,93.70437462499831,,,,93.69764449994545,94.29388545791153,94.88404929195531,right,0.5872282499913126,None,demo2,001,2025-01-26_16h15.23.030,contrast_sensitivity,2024.2.4,None,2025-01-26 16h15.28.484449 -0500,
0.01,1,0.05,87,27,1,right,0.4294536670204252,None,1,27,87,38,94.89286241692025,,,,94.88589437492192,95.48062183300499,95.91343095793854,right,0.4294536670204252,None,demo2,001,2025-01-26_16h15.23.030,contrast_sensitivity,2024.2.4,None,2025-01-26 16h15.28.484449 -0500,
0.0001,1,0.025,88,28,1,left,0.5631820000708103,None,1,28,88,49,95.92143212491646,,,,95.91553062491585,96.5108338749269,97.07893329195213,left,0.5631820000708103,None,demo2,001,2025-01-26_16h15.23.030,contrast_sensitivity,2024.2.4,None,2025-01-26 16h15.28.484449 -0500,
0.01,-1,0.025,89,29,1,right,0.4379457909381017,None,1,29,89,56,97.0872054999927,,,,97.0808109579375,97.67805512493942,98.12923320790287,right,0.4379457909381017,None,demo2,001,2025-01-26_16h15.23.030,contrast_sensitivity,2024.2.4,None,2025-01-26 16h15.28.484449 -0500,
1e-08,1,0.025,90,30,1,left,0.5148081249790266,None,1,30,90,48,98.13736512500327,,,,98.13107995793689,98.72719050000887,99.24686074990314,left,0.5148081249790266,None,demo2,001,2025-01-26_16h15.23.030,contrast_sensitivity,2024.2.4,None,2025-01-26 16h15.28.484449 -0500,
1e-08,1,0.4,91,31,1,right,0.5981678329408169,None,1,31,91,0,99.26076645799913,,,,99.24874129192904,99.84379891690332,100.44609533296898,right,0.5981678329408169,None,demo2,001,2025-01-26_16h15.23.030,contrast_sensitivity,2024.2.4,None,2025-01-26 16h15.28.484449 -0500,
0.01,1,0.4,92,32,1,right,0.42521983303595334,None,1,32,92,2,100.4539274169365,,,,100.44815829198342,101.04387304198463,101.479656457901,right,0.42521983303595334,None,demo2,001,2025-01-26_16h15.23.030,contrast_sensitivity,2024.2.4,None,2025-01-26 16h15.28.484449 -0500,
0.05,-1,0.025,93,33,1,right,0.5226536659756675,None,1,33,93,57,101.49376779200975,,,,101.48168316693045,102.07724316697568,102.61258970794734,right,0.5226536659756675,None,demo2,001,2025-01-26_16h15.23.030,contrast_sensitivity,2024.2.4,None,2025-01-26 16h15.28.484449 -0500,
0.1,1,0.2,94,34,1,right,0.4891704589826986,None,1,34,94,16,102.6211337079294,,,,102.61476320796646,103.2107288329862,103.71307554200757,right,0.4891704589826986,None,demo2,001,2025-01-26_16h15.23.030,contrast_sensitivity,2024.2.4,None,2025-01-26 16h15.28.484449 -0500,
0.1,-1,0.1,95,35,1,left,0.3513060000259429,None,1,35,95,34,103.72141937492415,,,,103.71532479196321,104.3105125419097,104.66645808296744,left,0.3513060000259429,None,demo2,001,2025-01-26_16h15.23.030,contrast_sensitivity,2024.2.4,None,2025-01-26 16h15.28.484449 -0500,
1.0,1,0.4,96,36,1,right,0.4392793329898268,None,1,36,96,5,104.67706749995705,,,,104.66835054196417,105.26158541697077,105.71276908298023,right,0.4392793329898268,None,demo2,001,2025-01-26_16h15.23.030,contrast_sensitivity,2024.2.4,None,2025-01-26 16h15.28.484449 -0500,
0.1,-1,0.05,97,37,1,left,0.336126625072211,None,1,37,97,46,105.72067483293358,,,,105.71488133294042,106.31067541695666,106.64961799990851,left,0.336126625072211,None,demo2,001,2025-01-26_16h15.23.030,contrast_sensitivity,2024.2.4,None,2025-01-26 16h15.28.484449 -0500,
0.05,-1,0.4,98,38,1,left,0.32353016606066376,None,1,38,98,9,106.66039137495682,,,,106.65188874991145,107.24829445790965,107.57902741699945,left,0.32353016606066376,None,demo2,001,2025-01-26_16h15.23.030,contrast_sensitivity,2024.2.4,None,2025-01-26 16h15.28.484449 -0500,
0.0001,-1,0.2,99,39,1,left,0.4185088749509305,None,1,39,99,19,107.58505358290859,,,,107.58040599990636,108.17726112494711,108.59990537492558,left,0.4185088749509305,None,demo2,001,2025-01-26_16h15.23.030,contrast_sensitivity,2024.2.4,None,2025-01-26 16h15.28.484449 -0500,
1.0,-1,0.025,100,40,1,left,0.27486837503965944,None,1,40,100,59,108.61039320798591,,,,108.6019056669902,109.19385462498758,109.47938562498894,left,0.27486837503965944,None,demo2,001,2025-01-26_16h15.23.030,contrast_sensitivity,2024.2.4,None,2025-01-26 16h15.28.484449 -0500,
1.0,-1,0.4,101,41,1,left,0.3485459169605747,None,1,41,101,11,109.48631924996153,,,,109.48143995797727,110.07718970801216,110.42905987496488,left,0.3485459169605747,None,demo2,001,2025-01-26_16h15.23.030,contrast_sensitivity,2024.2.4,None,2025-01-26 16h15.28.484449 -0500,
0.1,1,0.025,102,42,1,left,0.42859979101922363,None,1,42,102,52,110.43700249993708,,,,110.43119208293501,111.02723233297002,111.46289674995933,left,0.42859979101922363,None,demo2,001,2025-01-26_16h15.23.030,contrast_sensitivity,2024.2.4,None,2025-01-26 16h15.28.484449 -0500,
0.05,-1,0.2,103,43,1,left,0.33027408306952566,None,1,43,103,21,111.47173804196063,,,,111.46498191694263,112.0605214999523,112.39679087500554,left,0.33027408306952566,None,demo2,001,2025-01-26_16h15.23.030,contrast_sensitivity,2024.2.4,None,2025-01-26 16h15.28.484449 -0500,
1.0,-1,0.1,104,44,1,left,0.23172379098832607,None,1,44,104,35,112.40532074996736,,,,112.39882187498733,113.01089966692962,113.24512524995953,left,0.23172379098832607,None,demo2,001,2025-01-26_16h15.23.030,contrast_sensitivity,2024.2.4,None,2025-01-26 16h15.28.484449 -0500,
0.05,-1,0.1,105,45,1,left,0.2994032090064138,None,1,45,105,33,113.25215670792386,,,,113.2465000419179,113.84420533291996,114.14604920800775,left,0.2994032090064138,None,demo2,001,2025-01-26_16h15.23.030,contrast_sensitivity,2024.2.4,None,2025-01-26 16h15.28.484449 -0500,
1e-08,1,0.1,106,46,1,left,0.38877512502949685,None,1,46,106,24,114.1540826249402,,,,114.14798758295365,114.74386233300902,115.14872762490995,left,0.38877512502949685,None,demo2,001,2025-01-26_16h15.23.030,contrast_sensitivity,2024.2.4,None,2025-01-26 16h15.28.484449 -0500,
0.1,-1,0.4,107,47,1,left,0.30057604203466326,None,1,47,107,10,115.16056904196739,,,,115.15045191696845,115.74397408298682,116.04925458296202,left,0.30057604203466326,None,demo2,001,2025-01-26_16h15.23.030,contrast_sensitivity,2024.2.4,None,2025-01-26 16h15.28.484449 -0500,
0.05,1,0.4,108,48,1,right,0.3026196249993518,None,1,48,108,3,116.06029233289883,,,,116.05048066691961,116.64393024996389,116.96322274999693,right,0.3026196249993518,None,demo2,001,2025-01-26_16h15.23.030,contrast_sensitivity,2024.2.4,None,2025-01-26 16h15.28.484449 -0500,
1e-08,-1,0.4,109,49,1,right,0.5369641669094563,None,1,49,109,6,116.97732800000813,,,,116.96512074989732,117.56054716696963,118.09915366698988,right,0.5369641669094563,None,demo2,001,2025-01-26_16h15.23.030,contrast_sensitivity,2024.2.4,None,2025-01-26 16h15.28.484449 -0500,
0.0001,-1,0.4,110,50,1,left,0.3728309579892084,None,1,50,110,7,118.11032337497454,,,,118.10113349999301,118.69981399993412,119.07975512498524,left,0.3728309579892084,None,demo2,001,2025-01-26_16h15.23.030,contrast_sensitivity,2024.2.4,None,2025-01-26 16h15.28.484449 -0500,
0.0001,-1,0.05,111,51,1,left,0.5433337499853224,None,1,51,111,43,119.08845758298412,,,,119.08185616694391,119.69413699989673,120.24603766691871,left,0.5433337499853224,None,demo2,001,2025-01-26_16h15.23.030,contrast_sensitivity,2024.2.4,None,2025-01-26 16h15.28.484449 -0500,
1.0,1,0.05,112,52,1,right,0.2745249579893425,None,1,52,112,41,120.25165112491231,,,,120.24744849989656,120.84392187499907,121.1298170828959,right,0.2745249579893425,None,demo2,001,2025-01-26_16h15.23.030,contrast_sensitivity,2024.2.4,None,2025-01-26 16h15.28.484449 -0500,
0.1,1,0.1,113,53,1,right,0.3302722910884768,None,1,53,113,28,121.13759941700846,,,,121.13189066690393,121.72818749991711,122.06433208298404,right,0.3302722910884768,None,demo2,001,2025-01-26_16h15.23.030,contrast_sensitivity,2024.2.4,None,2025-01-26 16h15.28.484449 -0500,
0.05,1,0.025,114,54,1,left,0.4489234590437263,None,1,54,114,51,122.07735220796894,,,,122.06612954195589,122.6605362079572,123.11266670795158,left,0.4489234590437263,None,demo2,001,2025-01-26_16h15.23.030,contrast_sensitivity,2024.2.4,None,2025-01-26 16h15.28.484449 -0500,
0.05,-1,0.05,115,55,1,left,0.47932195791509,None,1,55,115,45,123.12053137493785,,,,123.1148032079218,123.7110659169266,124.19611683289986,left,0.47932195791509,None,demo2,001,2025-01-26_16h15.23.030,contrast_sensitivity,2024.2.4,None,2025-01-26 16h15.28.484449 -0500,
0.1,-1,0.025,116,56,1,right,0.3654957079561427,None,1,56,116,58,124.2040984579362,,,,124.19806616695132,124.79389258299489,125.16291733295657,right,0.3654957079561427,None,demo2,001,2025-01-26_16h15.23.030,contrast_sensitivity,2024.2.4,None,2025-01-26 16h15.28.484449 -0500,
0.1,1,0.4,117,57,1,right,0.3402367919916287,None,1,57,117,4,125.17142308293842,,,,125.16492816701066,125.76020866690669,126.11367920797784,right,0.3402367919916287,None,demo2,001,2025-01-26_16h15.23.030,contrast_sensitivity,2024.2.4,None,2025-01-26 16h15.28.484449 -0500,
0.01,-1,0.2,118,58,1,left,0.36475199996493757,None,1,58,118,20,126.12717862497084,,,,126.11569037497975,126.71058983297553,127.07991124992259,left,0.36475199996493757,None,demo2,001,2025-01-26_16h15.23.030,contrast_sensitivity,2024.2.4,None,2025-01-26 16h15.28.484449 -0500,
1e-08,-1,0.025,119,59,1,left,0.3838987919734791,None,1,59,119,54,127.09431045793463,,,,127.08197399997152,127.67837345798034,128.0663714169059,left,0.3838987919734791,None,demo2,001,2025-01-26_16h15.23.030,contrast_sensitivity,2024.2.4,None,2025-01-26 16h15.28.484449 -0500,
0.1,-1,0.05,120,0,2,left,0.33342691708821803,None,2,0,120,46,128.07703787495848,,,,128.06853924994357,128.66483262495603,128.99971983290743,left,0.33342691708821803,None,demo2,001,2025-01-26_16h15.23.030,contrast_sensitivity,2024.2.4,None,2025-01-26 16h15.28.484449 -0500,
0.05,1,0.4,121,1,2,right,0.3883257079869509,None,2,1,121,3,129.01046587491874,,,,129.00172949989792,129.59793837496545,129.99456366698723,right,0.3883257079869509,None,demo2,001,2025-01-26_16h15.23.030,contrast_sensitivity,2024.2.4,None,2025-01-26 16h15.28.484449 -0500,
0.0001,1,0.4,122,2,2,right,0.2506176659371704,None,2,2,122,1,129.99967791698873,,,,129.9959062919952,130.58161804196425,130.8460292079253,right,0.2506176659371704,None,demo2,001,2025-01-26_16h15.23.030,contrast_sensitivity,2024.2.4,None,2025-01-26 16h15.28.484449 -0500,
1e-08,-1,0.1,123,3,2,right,0.23996129096485674,None,2,3,123,30,130.85468862496782,,,,130.8479546669405,131.44416949991137,131.69669399992563,right,0.23996129096485674,None,demo2,001,2025-01-26_16h15.23.030,contrast_sensitivity,2024.2.4,None,2025-01-26 16h15.28.484449 -0500,
0.1,-1,0.4,124,4,2,left,0.3414368750527501,None,2,4,124,10,131.70463004196063,,,,131.69846666697413,132.2939098329516,132.6461172499694,left,0.3414368750527501,None,demo2,001,2025-01-26_16h15.23.030,contrast_sensitivity,2024.2.4,None,2025-01-26 16h15.28.484449 -0500,
0.0001,1,0.2,125,5,2,right,0.34561654191929847,None,2,5,125,13,132.65465108293574,,,,132.64809358294588,133.24372616689652,133.59616108296905,right,0.34561654191929847,None,demo2,001,2025-01-26_16h15.23.030,contrast_sensitivity,2024.2.4,None,2025-01-26 16h15.28.484449 -0500,
1e-08,-1,0.2,126,6,2,right,0.3896178330760449,None,2,6,126,18,133.6044955420075,,,,133.59797245799564,134.19351354194805,134.59517200000118,right,0.3896178330760449,None,demo2,001,2025-01-26_16h15.23.030,contrast_sensitivity,2024.2.4,None,2025-01-26 16h15.28.484449 -0500,
0.01,-1,0.025,127,7,2,left,0.3445178749971092,None,2,7,127,56,134.60062762501184,,,,134.59665708290413,135.19372604193632,135.54638645797968,left,0.3445178749971092,None,demo2,001,2025-01-26_16h15.23.030,contrast_sensitivity,2024.2.4,None,2025-01-26 16h15.28.484449 -0500,
0.1,-1,0.2,128,8,2,left,0.47054345801007,None,2,8,128,22,135.55481391691137,,,,135.54829445795622,136.14360520790797,136.6159628329333,left,0.47054345801007,None,demo2,001,2025-01-26_16h15.23.030,contrast_sensitivity,2024.2.4,None,2025-01-26 16h15.28.484449 -0500,
1.0,1,0.025,129,9,2,right,0.3475867919623852,None,2,9,129,53,136.6271850829944,,,,136.6186433749972,137.21553866693284,137.56702112499624,right,0.3475867919623852,None,demo2,001,2025-01-26_16h15.23.030,contrast_sensitivity,2024.2.4,None,2025-01-26 16h15.28.484449 -0500,
0.05,-1,0.4,130,10,2,left,0.33367412502411753,None,2,10,130,9,137.57723149994854,,,,137.56914024997968,138.1653593329247,138.51281579199713,left,0.33367412502411753,None,demo2,001,2025-01-26_16h15.23.030,contrast_sensitivity,2024.2.4,None,2025-01-26 16h15.28.484449 -0500,
1e-08,-1,0.05,131,11,2,left,0.39760212507098913,None,2,11,131,42,138.5200543749379,,,,138.5149307079846,139.11056254198775,139.51168304192834,left,0.39760212507098913,None,demo2,001,2025-01-26_16h15.23.030,contrast_sensitivity,2024.2.4,None,2025-01-26 16h15.28.484449 -0500,
1e-08,-1,0.4,132,12,2,right,0.3355905410135165,None,2,12,132,6,139.51816854195204,,,,139.5134278750047,140.11045983294025,140.44967724999879,right,0.3355905410135165,None,demo2,001,2025-01-26_16h15.23.030,contrast_sensitivity,2024.2.4,None,2025-01-26 16h15.28.484449 -0500,
1.0,-1,0.4,133,13,2,left,0.38702629192266613,None,2,13,133,11,140.46018620789982,,,,140.45185283292085,141.0469987919787,141.44564466690645,left,0.38702629192266613,None,demo2,001,2025-01-26_16h15.23.030,contrast_sensitivity,2024.2.4,None,2025-01-26 16h15.28.484449 -0500,
0.01,-1,0.1,134,14,2,left,0.408817374962382,None,2,14,134,32,141.45424145797733,,,,141.44759762496687,142.044253207976,142.46250966691878,left,0.408817374962382,None,demo2,001,2025-01-26_16h15.23.030,contrast_sensitivity,2024.2.4,None,2025-01-26 16h15.28.484449 -0500,
0.05,1,0.025,135,15,2,left,0.4004341249819845,None,2,15,135,51,142.47109504195396,,,,142.4646358329337,143.0604822919704,143.4664099579677,left,0.4004341249819845,None,demo2,001,2025-01-26_16h15.23.030,contrast_sensitivity,2024.2.4,None,2025-01-26 16h15.28.484449 -0500,
0.1,-1,0.1,136,16,2,left,0.36711808398831636,None,2,16,136,34,143.47687783290166,,,,143.4686324999202,144.0607645829441,144.43255379190668,left,0.36711808398831636,None,demo2,001,2025-01-26_16h15.23.030,contrast_sensitivity,2024.2.4,None,2025-01-26 16h15.28.484449 -0500,
0.05,-1,0.025,137,17,2,left,0.3406975419493392,None,2,17,137,57,144.44376141694374,,,,144.43451758299489,145.0322270829929,145.37922191689722,left,0.3406975419493392,None,demo2,001,2025-01-26_16h15.23.030,contrast_sensitivity,2024.2.4,None,2025-01-26 16h15.28.484449 -0500,
0.1,1,0.1,138,18,2,right,0.38863591698464006,None,2,18,138,28,145.3870617079083,,,,145.38107645791024,145.9772503329441,146.3798949579941,right,0.38863591698464006,None,demo2,001,2025-01-26_16h15.23.030,contrast_sensitivity,2024.2.4,None,2025-01-26 16h15.28.484449 -0500,
0.01,1,0.2,139,19,2,right,0.3506990000605583,None,2,19,139,14,146.3884559579892,,,,146.381980291917,146.9771429579705,147.33825337490998,right,0.3506990000605583,None,demo2,001,2025-01-26_16h15.23.030,contrast_sensitivity,2024.2.4,None,2025-01-26 16h15.28.484449 -0500,
1e-08,-1,0.025,140,20,2,right,0.5012267919955775,None,2,20,140,54,147.34545487491414,,,,147.33939991693478,147.94359795795754,148.45415983290877,right,0.5012267919955775,None,demo2,001,2025-01-26_16h15.23.030,contrast_sensitivity,2024.2.4,None,2025-01-26 16h15.28.484449 -0500,
1.0,-1,0.1,141,21,2,left,0.3506541249807924,None,2,21,141,35,148.4603836669121,,,,148.4553030419629,149.04814479197375,149.41310133296065,left,0.3506541249807924,None,demo2,001,2025-01-26_16h15.23.030,contrast_sensitivity,2024.2.4,None,2025-01-26 16h15.28.484449 -0500,
0.05,1,0.05,142,22,2,right,0.39244266599416733,None,2,22,142,39,149.42160333297215,,,,149.4150651670061,150.0104488329962,150.4129659999162,right,0.39244266599416733,None,demo2,001,2025-01-26_16h15.23.030,contrast_sensitivity,2024.2.4,None,2025-01-26 16h15.28.484449 -0500,
1.0,-1,0.025,143,23,2,left,0.2613628749968484,None,2,23,143,59,150.42132308299188,,,,150.41489037498832,151.0105577079812,151.2791882919846,left,0.2613628749968484,None,demo2,001,2025-01-26_16h15.23.030,contrast_sensitivity,2024.2.4,None,2025-01-26 16h15.28.484449 -0500,
1.0,-1,0.2,144,24,2,left,0.29751716600731015,None,2,24,144,23,151.2872941249516,,,,151.28115345793776,151.87727099994663,152.1799344168976,left,0.29751716600731015,None,demo2,001,2025-01-26_16h15.23.030,contrast_sensitivity,2024.2.4,None,2025-01-26 16h15.28.484449 -0500,
0.01,1,0.4,145,25,2,right,0.36513900000136346,None,2,25,145,2,152.19402708299458,,,,152.18179499998223,152.77759104198776,153.14619333297014,right,0.36513900000136346,None,demo2,001,2025-01-26_16h15.23.030,contrast_sensitivity,2024.2.4,None,2025-01-26 16h15.28.484449 -0500,
0.05,-1,0.1,146,26,2,left,0.3448959579691291,None,2,26,146,33,153.154904874973,,,,153.14815683290362,153.74388949992135,154.0957428329857,left,0.3448959579691291,None,demo2,001,2025-01-26_16h15.23.030,contrast_sensitivity,2024.2.4,None,2025-01-26 16h15.28.484449 -0500,
1e-08,1,0.025,147,27,2,left,0.4506190000101924,None,2,27,147,48,154.10472370800562,,,,154.0978049999103,154.69402091694064,155.14986166695599,left,0.4506190000101924,None,demo2,001,2025-01-26_16h15.23.030,contrast_sensitivity,2024.2.4,None,2025-01-26 16h15.28.484449 -0500,
0.01,1,0.025,148,28,2,left,0.4059488750062883,None,2,28,148,50,155.16046120796818,,,,155.15180404193234,155.74373979191296,156.1626094999956,left,0.4059488750062883,None,demo2,001,2025-01-26_16h15.23.030,contrast_sensitivity,2024.2.4,None,2025-01-26 16h15.28.484449 -0500,
0.01,-1,0.05,149,29,2,right,0.4081259579397738,None,2,29,149,44,156.17107895796653,,,,156.1645377499517,156.76048116700258,157.18085424997844,right,0.4081259579397738,None,demo2,001,2025-01-26_16h15.23.030,contrast_sensitivity,2024.2.4,None,2025-01-26 16h15.28.484449 -0500,
0.0001,1,0.025,150,30,2,left,0.4243587499950081,None,2,30,150,49,157.1939226249233,,,,157.18295729195233,157.77735699992627,158.21241695794743,left,0.4243587499950081,None,demo2,001,2025-01-26_16h15.23.030,contrast_sensitivity,2024.2.4,None,2025-01-26 16h15.28.484449 -0500,
0.0001,-1,0.1,151,31,2,left,0.3040803330950439,None,2,31,151,31,158.22120833292138,,,,158.21436374995392,158.81046549999155,159.12943170790095,left,0.3040803330950439,None,demo2,001,2025-01-26_16h15.23.030,contrast_sensitivity,2024.2.4,None,2025-01-26 16h15.28.484449 -0500,
1.0,1,0.05,152,32,2,right,0.3032822090899572,None,2,32,152,41,159.13634879200254,,,,159.13144695793744,159.72726445796434,160.03298649995122,right,0.3032822090899572,None,demo2,001,2025-01-26_16h15.23.030,contrast_sensitivity,2024.2.4,None,2025-01-26 16h15.28.484449 -0500,
1e-08,1,0.05,153,33,2,left,0.4065765000414103,None,2,33,153,36,160.04381754191127,,,,160.03500595793594,160.63210854190402,161.0462846669834,left,0.4065765000414103,None,demo2,001,2025-01-26_16h15.23.030,contrast_sensitivity,2024.2.4,None,2025-01-26 16h15.28.484449 -0500,
0.05,1,0.1,154,34,2,right,0.27071370906196535,None,2,34,154,27,161.05437654198613,,,,161.04840699990746,161.64377387496643,161.91585925000254,right,0.27071370906196535,None,demo2,001,2025-01-26_16h15.23.030,contrast_sensitivity,2024.2.4,None,2025-01-26 16h15.28.484449 -0500,
0.1,1,0.4,155,35,2,right,0.26946366601623595,None,2,35,155,4,161.92687845800538,,,,161.91722333291546,162.51100766693708,162.78234999999404,right,0.26946366601623595,None,demo2,001,2025-01-26_16h15.23.030,contrast_sensitivity,2024.2.4,None,2025-01-26 16h15.28.484449 -0500,
0.0001,-1,0.2,156,36,2,left,0.32392004097346216,None,2,36,156,19,162.79363974998705,,,,162.78435195796192,163.3775258329697,163.71297579200473,left,0.32392004097346216,None,demo2,001,2025-01-26_16h15.23.030,contrast_sensitivity,2024.2.4,None,2025-01-26 16h15.28.484449 -0500,
0.01,1,0.05,157,37,2,right,0.38100704189855605,None,2,37,157,38,163.72093283291906,,,,163.7150297499029,164.3104752919171,164.69670666696038,right,0.38100704189855605,None,demo2,001,2025-01-26_16h15.23.030,contrast_sensitivity,2024.2.4,None,2025-01-26 16h15.28.484449 -0500,
0.05,-1,0.05,158,38,2,right,0.32890162500552833,None,2,38,158,45,164.70495487493463,,,,164.69861070800107,165.31062299991027,165.64584649994504,right,0.32890162500552833,None,demo2,001,2025-01-26_16h15.23.030,contrast_sensitivity,2024.2.4,None,2025-01-26 16h15.28.484449 -0500,
1.0,1,0.2,159,39,2,right,0.19265166600234807,None,2,39,159,17,165.6537914579967,,,,165.64772324997466,166.243796958006,166.44642416690476,right,0.19265166600234807,None,demo2,001,2025-01-26_16h15.23.030,contrast_sensitivity,2024.2.4,None,2025-01-26 16h15.28.484449 -0500,
1e-08,1,0.4,160,40,2,right,0.5603066249750555,None,2,40,160,0,166.45476049999706,,,,166.44862924993504,167.04409087495878,167.6128376669949,right,0.5603066249750555,None,demo2,001,2025-01-26_16h15.23.030,contrast_sensitivity,2024.2.4,None,2025-01-26 16h15.28.484449 -0500,
1e-08,1,0.2,161,41,2,left,0.3488155420636758,None,2,41,161,12,167.62175945797935,,,,167.6149526250083,168.21054412494414,168.5626593749039,left,0.3488155420636758,None,demo2,001,2025-01-26_16h15.23.030,contrast_sensitivity,2024.2.4,None,2025-01-26 16h15.28.484449 -0500,
0.1,1,0.05,162,42,2,right,0.3186563749331981,None,2,42,162,40,168.57134691695683,,,,168.56474754191004,169.16065258299932,169.48308999999426,right,0.3186563749331981,None,demo2,001,2025-01-26_16h15.23.030,contrast_sensitivity,2024.2.4,None,2025-01-26 16h15.28.484449 -0500,
0.05,-1,0.2,163,43,2,left,0.1513015830423683,None,2,43,163,21,169.4937462079106,,,,169.48501574993134,170.08205445797648,170.24686058296356,left,0.1513015830423683,None,demo2,001,2025-01-26_16h15.23.030,contrast_sensitivity,2024.2.4,None,2025-01-26 16h15.28.484449 -0500,
1.0,1,0.4,164,44,2,right,0.13064829097129405,None,2,44,164,5,170.26065787498374,,,,170.2487232919084,170.84381099999882,170.9798145419918,right,0.13064829097129405,None,demo2,001,2025-01-26_16h15.23.030,contrast_sensitivity,2024.2.4,None,2025-01-26 16h15.28.484449 -0500,
0.01,1,0.1,165,45,2,right,0.41095404198858887,None,2,45,165,26,170.98745954199694,,,,170.98184908297844,171.5774642919423,171.99590020789765,right,0.41095404198858887,None,demo2,001,2025-01-26_16h15.23.030,contrast_sensitivity,2024.2.4,None,2025-01-26 16h15.28.484449 -0500,
1.0,-1,0.05,166,46,2,left,0.32048091699834913,None,2,46,166,47,172.00311837496702,,,,171.997874249937,172.59374987496994,172.91686124994885,left,0.32048091699834913,None,demo2,001,2025-01-26_16h15.23.030,contrast_sensitivity,2024.2.4,None,2025-01-26 16h15.28.484449 -0500,
0.01,-1,0.2,167,47,2,left,0.4643773330608383,None,2,47,167,20,172.9268667079741,,,,172.91894825000782,173.5158944579307,173.98350104200654,left,0.4643773330608383,None,demo2,001,2025-01-26_16h15.23.030,contrast_sensitivity,2024.2.4,None,2025-01-26 16h15.28.484449 -0500,
0.1,-1,0.025,168,48,2,left,0.25073658290784806,None,2,48,168,58,173.99358745792415,,,,173.98557954200078,174.58152737491764,174.8467135420069,left,0.25073658290784806,None,demo2,001,2025-01-26_16h15.23.030,contrast_sensitivity,2024.2.4,None,2025-01-26 16h15.28.484449 -0500,
0.1,1,0.025,169,49,2,right,0.3114723339676857,None,2,49,169,52,174.85479099990334,,,,174.84880116698332,175.44386487500742,175.76238304190338,right,0.3114723339676857,None,demo2,001,2025-01-26_16h15.23.030,contrast_sensitivity,2024.2.4,None,2025-01-26 16h15.28.484449 -0500,
0.0001,1,0.1,170,50,2,right,0.3194761669728905,None,2,50,170,25,175.77099499991164,,,,175.76435770792887,176.35969441698398,176.68399454199243,right,0.3194761669728905,None,demo2,001,2025-01-26_16h15.23.030,contrast_sensitivity,2024.2.4,None,2025-01-26 16h15.28.484449 -0500,
0.01,-1,0.4,171,51,2,left,0.35012854204978794,None,2,51,171,8,176.69250083295628,,,,176.6860252500046,177.28214662498794,177.64618341694586,left,0.35012854204978794,None,demo2,001,2025-01-26_16h15.23.030,contrast_sensitivity,2024.2.4,None,2025-01-26 16h15.28.484449 -0500,
0.1,1,0.2,172,52,2,right,0.34034125006292015,None,2,52,172,16,177.65377533296123,,,,177.6482253749855,178.24377854191698,178.5961227499647,right,0.34034125006292015,None,demo2,001,2025-01-26_16h15.23.030,contrast_sensitivity,2024.2.4,None,2025-01-26 16h15.28.484449 -0500,
1.0,1,0.1,173,53,2,right,0.3641256670234725,None,2,53,173,29,178.60495354200248,,,,178.59827412490267,179.19399041694123,179.56329266692046,right,0.3641256670234725,None,demo2,001,2025-01-26_16h15.23.030,contrast_sensitivity,2024.2.4,None,2025-01-26 16h15.28.484449 -0500,
0.05,1,0.2,174,54,2,right,0.20659387507475913,None,2,54,174,15,179.5724419169128,,,,179.56554641691037,180.16045983298682,180.3723112079315,right,0.20659387507475913,None,demo2,001,2025-01-26_16h15.23.030,contrast_sensitivity,2024.2.4,None,2025-01-26 16h15.28.484449 -0500,
0.0001,-1,0.4,175,55,2,left,0.565720958984457,None,2,55,175,7,180.37957633298356,,,,180.37431533297058,180.9651247919537,181.53359579190146,left,0.565720958984457,None,demo2,001,2025-01-26_16h15.23.030,contrast_sensitivity,2024.2.4,None,2025-01-26 16h15.28.484449 -0500,
1e-08,1,0.1,176,56,2,left,0.6995585419936106,None,2,56,176,24,181.54352108296007,,,,181.53512745792978,182.13243662496097,182.8461289999541,left,0.6995585419936106,None,demo2,001,2025-01-26_16h15.23.030,contrast_sensitivity,2024.2.4,None,2025-01-26 16h15.28.484449 -0500,
0.0001,-1,0.025,177,57,2,right,0.6346714999526739,None,2,57,177,55,182.85462274996098,,,,182.8480775419157,183.44330070796423,184.08361733297352,right,0.6346714999526739,None,demo2,001,2025-01-26_16h15.23.030,contrast_sensitivity,2024.2.4,None,2025-01-26 16h15.28.484449 -0500,
0.0001,-1,0.05,178,58,2,left,0.4040429589804262,None,2,58,178,43,184.09349999995902,,,,184.08555962494574,184.68196654191706,185.09564479195978,left,0.4040429589804262,None,demo2,001,2025-01-26_16h15.23.030,contrast_sensitivity,2024.2.4,None,2025-01-26 16h15.28.484449 -0500,
0.0001,1,0.05,179,59,2,left,0.5494303329614922,None,2,59,179,37,185.10441999998875,,,,185.09770112496335,185.6938614170067,186.24582133290824,left,0.5494303329614922,None,demo2,001,2025-01-26_16h15.23.030,contrast_sensitivity,2024.2.4,None,2025-01-26 16h15.28.484449 -0500,
0.01,1,0.1,180,0,3,right,0.3321590409614146,None,3,0,180,26,186.25422966689803,,,,186.24772975000087,186.84376708290074,187.17925054195803,right,0.3321590409614146,None,demo2,001,2025-01-26_16h15.23.030,contrast_sensitivity,2024.2.4,None,2025-01-26 16h15.28.484449 -0500,
0.05,-1,0.05,181,1,3,right,0.5799017910612747,None,3,1,181,45,187.18783999991138,,,,187.18134895793628,187.77714575000573,188.36286279198248,right,0.5799017910612747,None,demo2,001,2025-01-26_16h15.23.030,contrast_sensitivity,2024.2.4,None,2025-01-26 16h15.28.484449 -0500,
0.1,1,0.1,182,2,3,right,0.40750995895359665,None,3,2,182,28,188.37164291692898,,,,188.3649819579441,188.96045983291697,189.37877583294176,right,0.40750995895359665,None,demo2,001,2025-01-26_16h15.23.030,contrast_sensitivity,2024.2.4,None,2025-01-26 16h15.28.484449 -0500,
1.0,-1,0.4,183,3,3,left,0.35466145898681134,None,3,3,183,11,189.38764808292035,,,,189.38083383289631,189.97715595795307,190.34462870797142,left,0.35466145898681134,None,demo2,001,2025-01-26_16h15.23.030,contrast_sensitivity,2024.2.4,None,2025-01-26 16h15.28.484449 -0500,
1.0,1,0.025,184,4,3,right,0.3645330839790404,None,3,4,184,53,190.35009424993768,,,,190.34624158299994,190.9322890829062,191.2994160829112,right,0.3645330839790404,None,demo2,001,2025-01-26_16h15.23.030,contrast_sensitivity,2024.2.4,None,2025-01-26 16h15.28.484449 -0500,
0.1,-1,0.025,185,5,3,left,0.8798907920718193,None,3,5,185,58,191.31041624990758,,,,191.3014395419741,191.89888720796444,192.7964384999359,left,0.8798907920718193,None,demo2,001,2025-01-26_16h15.23.030,contrast_sensitivity,2024.2.4,None,2025-01-26 16h15.28.484449 -0500,
0.01,1,0.05,186,6,3,left,0.7228980410145596,None,3,6,186,38,192.81066408299375,,,,192.79825608292595,193.3938804579666,194.12896825000644,left,0.7228980410145596,None,demo2,001,2025-01-26_16h15.23.030,contrast_sensitivity,2024.2.4,None,2025-01-26 16h15.28.484449 -0500,
0.05,1,0.05,187,7,3,right,0.5606929589994252,None,3,7,187,39,194.13743312493898,,,,194.1309546669945,194.72720008296892,195.29599574999884,right,0.5606929589994252,None,demo2,001,2025-01-26_16h15.23.030,contrast_sensitivity,2024.2.4,None,2025-01-26 16h15.28.484449 -0500,
1e-08,1,0.025,188,8,3,right,0.5368561669019982,None,3,8,188,48,195.3047753329156,,,,195.29800766694825,195.89384887495544,196.43309833295643,right,0.5368561669019982,None,demo2,001,2025-01-26_16h15.23.030,contrast_sensitivity,2024.2.4,None,2025-01-26 16h15.28.484449 -0500,
0.0001,1,0.4,189,9,3,right,0.45314700005110353,None,3,9,189,1,196.44365404197015,,,,196.43508337496314,197.03171033295803,197.49645999993663,right,0.45314700005110353,None,demo2,001,2025-01-26_16h15.23.030,contrast_sensitivity,2024.2.4,None,2025-01-26 16h15.28.484449 -0500,
1.0,1,0.05,190,10,3,right,0.3507823330583051,None,3,10,190,41,197.5051508329343,,,,197.49846595793497,198.09385899989866,198.45032633293886,right,0.3507823330583051,None,demo2,001,2025-01-26_16h15.23.030,contrast_sensitivity,2024.2.4,None,2025-01-26 16h15.28.484449 -0500,
0.0001,1,0.1,191,11,3,left,0.4892822499386966,None,3,11,191,25,198.46019808296114,,,,198.45242595800664,199.0485270830104,199.54612758290023,left,0.4892822499386966,None,demo2,001,2025-01-26_16h15.23.030,contrast_sensitivity,2024.2.4,None,2025-01-26 16h15.28.484449 -0500,
0.05,-1,0.2,192,12,3,left,0.31971562502440065,None,3,12,192,21,199.55478016694542,,,,199.547995916917,200.14392512489576,200.46694883296732,left,0.31971562502440065,None,demo2,001,2025-01-26_16h15.23.030,contrast_sensitivity,2024.2.4,None,2025-01-26 16h15.28.484449 -0500,
1.0,1,0.1,193,13,3,right,0.3574401660589501,None,3,13,193,29,200.477065791958,,,,200.4689117919188,201.06534562492743,201.4292850829661,right,0.3574401660589501,None,demo2,001,2025-01-26_16h15.23.030,contrast_sensitivity,2024.2.4,None,2025-01-26 16h15.28.484449 -0500,
0.01,-1,0.2,194,14,3,right,0.3765730840386823,None,3,14,194,20,201.43809783295728,,,,201.43188916693907,202.02714916691184,202.41277850000188,right,0.3765730840386823,None,demo2,001,2025-01-26_16h15.23.030,contrast_sensitivity,2024.2.4,None,2025-01-26 16h15.28.484449 -0500,
1e-08,1,0.4,195,15,3,left,0.45902562502305955,None,3,15,195,0,202.42137879191432,,,,202.41472216695547,203.01063837495167,203.47967499995138,left,0.45902562502305955,None,demo2,001,2025-01-26_16h15.23.030,contrast_sensitivity,2024.2.4,None,2025-01-26 16h15.28.484449 -0500,
0.0001,-1,0.2,196,16,3,left,0.5713325419928879,None,3,16,196,19,203.4874632919673,,,,203.4817756669363,204.07716912496835,204.6505415419815,left,0.5713325419928879,None,demo2,001,2025-01-26_16h15.23.030,contrast_sensitivity,2024.2.4,None,2025-01-26 16h15.28.484449 -0500,
1.0,-1,0.2,197,17,3,left,0.47104433295316994,None,3,17,197,23,204.66042408300564,,,,204.65233929199167,205.26107299991418,205.745625999989,left,0.47104433295316994,None,demo2,001,2025-01-26_16h15.23.030,contrast_sensitivity,2024.2.4,None,2025-01-26 16h15.28.484449 -0500,
0.1,-1,0.05,198,18,3,left,0.3516740829218179,None,3,18,198,46,205.7543229169678,,,,205.7479240829125,206.3438329999335,206.7047775419196,left,0.3516740829218179,None,demo2,001,2025-01-26_16h15.23.030,contrast_sensitivity,2024.2.4,None,2025-01-26 16h15.28.484449 -0500,
0.05,-1,0.1,199,19,3,left,0.3945150829385966,None,3,19,199,33,206.71250154194422,,,,206.7063990419265,207.29894408292603,207.69629616697785,left,0.3945150829385966,None,demo2,001,2025-01-26_16h15.23.030,contrast_sensitivity,2024.2.4,None,2025-01-26 16h15.28.484449 -0500,
1.0,-1,0.1,200,20,3,left,0.473605916951783,None,3,20,200,35,207.70380879193544,,,,207.69824449997395,208.29383491689805,208.77902333298698,left,0.473605916951783,None,demo2,001,2025-01-26_16h15.23.030,contrast_sensitivity,2024.2.4,None,2025-01-26 16h15.28.484449 -0500,
1.0,1,0.4,201,21,3,right,0.2931992920348421,None,3,21,201,5,208.78699362499174,,,,208.78093579190318,209.37719658296555,209.67903641692828,right,0.2931992920348421,None,demo2,001,2025-01-26_16h15.23.030,contrast_sensitivity,2024.2.4,None,2025-01-26 16h15.28.484449 -0500,
0.0001,-1,0.1,202,22,3,right,0.3381323750363663,None,3,22,202,31,209.68761408294085,,,,209.68116458295844,210.2771974169882,210.62252466694918,right,0.3381323750363663,None,demo2,001,2025-01-26_16h15.23.030,contrast_sensitivity,2024.2.4,None,2025-01-26 16h15.28.484449 -0500,
0.1,1,0.025,203,23,3,right,0.5168295840267092,None,3,23,203,52,210.62940924998838,,,,210.62442966690287,211.22746158298105,211.74905941693578,right,0.5168295840267092,None,demo2,001,2025-01-26_16h15.23.030,contrast_sensitivity,2024.2.4,None,2025-01-26 16h15.28.484449 -0500,
0.1,1,0.05,204,24,3,right,0.34758433303795755,None,3,24,204,40,211.76039095793385,,,,211.75046570796985,212.34380229189992,212.6965865829261,right,0.34758433303795755,None,demo2,001,2025-01-26_16h15.23.030,contrast_sensitivity,2024.2.4,None,2025-01-26 16h15.28.484449 -0500,
1.0,1,0.2,205,25,3,right,0.284562790999189,None,3,25,205,17,212.70496849995106,,,,212.698777624988,213.31176199996844,213.60045612498652,right,0.284562790999189,None,demo2,001,2025-01-26_16h15.23.030,contrast_sensitivity,2024.2.4,None,2025-01-26 16h15.28.484449 -0500,
0.01,1,0.025,206,26,3,left,0.3222865000134334,None,3,26,206,50,213.61020904197358,,,,213.60247537493706,214.1981161669828,214.5291572919814,left,0.3222865000134334,None,demo2,001,2025-01-26_16h15.23.030,contrast_sensitivity,2024.2.4,None,2025-01-26 16h15.28.484449 -0500,
0.0001,-1,0.025,207,27,3,left,0.2961762079503387,None,3,27,207,55,214.53772599995136,,,,214.53105449990835,215.12723699992057,215.42850524990354,left,0.2961762079503387,None,demo2,001,2025-01-26_16h15.23.030,contrast_sensitivity,2024.2.4,None,2025-01-26 16h15.28.484449 -0500,
0.05,1,0.4,208,28,3,right,0.14017695805523545,None,3,28,208,3,215.43455070792697,,,,215.42977787496056,216.02707274991553,216.17889504192863,right,0.14017695805523545,None,demo2,001,2025-01-26_16h15.23.030,contrast_sensitivity,2024.2.4,None,2025-01-26 16h15.28.484449 -0500,
0.0001,-1,0.05,209,29,3,right,0.42016370804049075,None,3,29,209,43,216.1875099169556,,,,216.181143707945,216.77610883291345,217.19932120793965,right,0.42016370804049075,None,demo2,001,2025-01-26_16h15.23.030,contrast_sensitivity,2024.2.4,None,2025-01-26 16h15.28.484449 -0500,
0.05,1,0.1,210,30,3,left,0.44310458307154477,None,3,30,210,27,217.21055545797572,,,,217.2011259169085,217.79422570799943,218.2460623329971,left,0.44310458307154477,None,demo2,001,2025-01-26_16h15.23.030,contrast_sensitivity,2024.2.4,None,2025-01-26 16h15.28.484449 -0500,
1e-08,-1,0.4,211,31,3,right,0.8283043749397621,None,3,31,211,6,218.25445929192938,,,,218.2480045829434,218.84397216700017,219.6788574999664,right,0.8283043749397621,None,demo2,001,2025-01-26_16h15.23.030,contrast_sensitivity,2024.2.4,None,2025-01-26 16h15.28.484449 -0500,
0.05,-1,0.4,212,32,3,left,0.350001291022636,None,3,32,212,9,219.68691795796622,,,,219.68075399997178,220.2771147500025,220.62971299991477,left,0.350001291022636,None,demo2,001,2025-01-26_16h15.23.030,contrast_sensitivity,2024.2.4,None,2025-01-26 16h15.28.484449 -0500,
1e-08,-1,0.05,213,33,3,right,0.3390027499990538,None,3,33,213,42,220.6378957919078,,,,220.63158462499268,221.22714333294425,221.57956016692333,right,0.3390027499990538,None,demo2,001,2025-01-26_16h15.23.030,contrast_sensitivity,2024.2.4,None,2025-01-26 16h15.28.484449 -0500,
0.1,1,0.4,214,34,3,right,0.34375637501943856,None,3,34,214,4,221.5881636670092,,,,221.58172541693784,222.17747108300682,222.52932304190472,right,0.34375637501943856,None,demo2,001,2025-01-26_16h15.23.030,contrast_sensitivity,2024.2.4,None,2025-01-26 16h15.28.484449 -0500,
1e-08,-1,0.1,215,35,3,right,0.32181166706141084,None,3,35,215,30,222.53749237500597,,,,222.53132691700011,223.1272061249474,223.46376454189885,right,0.32181166706141084,None,demo2,001,2025-01-26_16h15.23.030,contrast_sensitivity,2024.2.4,None,2025-01-26 16h15.28.484449 -0500,
0.05,-1,0.025,216,36,3,left,0.5947744160657749,None,3,36,216,57,223.48079900001176,,,,223.46567020798102,224.06044545792975,224.6628201669082,left,0.5947744160657749,None,demo2,001,2025-01-26_16h15.23.030,contrast_sensitivity,2024.2.4,None,2025-01-26 16h15.28.484449 -0500,
0.0001,1,0.05,217,37,3,left,0.43545049999374896,None,3,37,217,37,224.67145837494172,,,,224.6650052079931,225.26057933294214,225.70108883292414,left,0.43545049999374896,None,demo2,001,2025-01-26_16h15.23.030,contrast_sensitivity,2024.2.4,None,2025-01-26 16h15.28.484449 -0500,
1e-08,1,0.05,218,38,3,left,0.3970079589635134,None,3,38,218,36,225.7091292499099,,,,225.70307587494608,226.29877487500198,226.69931033300236,left,0.3970079589635134,None,demo2,001,2025-01-26_16h15.23.030,contrast_sensitivity,2024.2.4,None,2025-01-26 16h15.28.484449 -0500,
0.01,1,0.2,219,39,3,right,0.4736159169115126,None,3,39,219,14,226.71031449991278,,,,226.70127387496177,227.2985753749963,227.77955991693307,right,0.4736159169115126,None,demo2,001,2025-01-26_16h15.23.030,contrast_sensitivity,2024.2.4,None,2025-01-26 16h15.28.484449 -0500,
1e-08,-1,0.2,220,40,3,left,0.5567615419859067,None,3,40,220,18,227.78850837494247,,,,227.78222108294722,228.37717233295552,228.94618029193953,left,0.5567615419859067,None,demo2,001,2025-01-26_16h15.23.030,contrast_sensitivity,2024.2.4,None,2025-01-26 16h15.28.484449 -0500,
1e-08,-1,0.025,221,41,3,left,0.3911820420762524,None,3,41,221,54,228.9547739579575,,,,228.9481207919307,229.54385524999816,229.94608074997086,left,0.3911820420762524,None,demo2,001,2025-01-26_16h15.23.030,contrast_sensitivity,2024.2.4,None,2025-01-26 16h15.28.484449 -0500,
0.1,-1,0.1,222,42,3,left,0.37829424999654293,None,3,42,222,34,229.9546285829274,,,,229.94791379198432,230.54374899994582,230.92901574994903,left,0.37829424999654293,None,demo2,001,2025-01-26_16h15.23.030,contrast_sensitivity,2024.2.4,None,2025-01-26 16h15.28.484449 -0500,
0.1,-1,0.2,223,43,3,left,0.382623124984093,None,3,43,223,22,230.9376882079523,,,,230.93114845792297,231.52722591697238,231.9114791249158,left,0.382623124984093,None,demo2,001,2025-01-26_16h15.23.030,contrast_sensitivity,2024.2.4,None,2025-01-26 16h15.28.484449 -0500,
0.01,-1,0.05,224,44,3,left,0.6599599999608472,None,3,44,224,44,231.91750808293,,,,231.9126723749796,232.4989073749166,233.16256712493487,left,0.6599599999608472,None,demo2,001,2025-01-26_16h15.23.030,contrast_sensitivity,2024.2.4,None,2025-01-26 16h15.28.484449 -0500,
0.01,-1,0.025,225,45,3,right,0.5109604169847444,None,3,45,225,56,233.1692969999276,,,,233.16454870800953,233.76083537493832,234.27922525000758,right,0.5109604169847444,None,demo2,001,2025-01-26_16h15.23.030,contrast_sensitivity,2024.2.4,None,2025-01-26 16h15.28.484449 -0500,
0.05,1,0.2,226,46,3,right,0.3065188330365345,None,3,46,226,15,234.2875487919664,,,,234.28122299991082,234.87728379201144,235.19575820793398,right,0.3065188330365345,None,demo2,001,2025-01-26_16h15.23.030,contrast_sensitivity,2024.2.4,None,2025-01-26 16h15.28.484449 -0500,
1.0,-1,0.025,227,47,3,left,0.3575137499719858,None,3,47,227,59,235.20408104197122,,,,235.19750683300663,235.79411599994637,236.16291033290327,left,0.3575137499719858,None,demo2,001,2025-01-26_16h15.23.030,contrast_sensitivity,2024.2.4,None,2025-01-26 16h15.28.484449 -0500,
0.01,-1,0.4,228,48,3,left,0.346317833987996,None,3,48,228,8,236.1721115419641,,,,236.16519224992953,236.76057441695593,237.1132895000046,left,0.346317833987996,None,demo2,001,2025-01-26_16h15.23.030,contrast_sensitivity,2024.2.4,None,2025-01-26 16h15.28.484449 -0500,
1e-08,1,0.2,229,49,3,left,0.46428524993825704,None,3,49,229,12,237.1276002919767,,,,237.11537774989847,237.71041016699746,238.18228579196148,left,0.46428524993825704,None,demo2,001,2025-01-26_16h15.23.030,contrast_sensitivity,2024.2.4,None,2025-01-26 16h15.28.484449 -0500,
0.0001,1,0.2,230,50,3,right,0.34925637498963624,None,3,50,230,13,238.19386649993248,,,,238.18373658298515,238.7774262499297,239.12914612493478,right,0.34925637498963624,None,demo2,001,2025-01-26_16h15.23.030,contrast_sensitivity,2024.2.4,None,2025-01-26 16h15.28.484449 -0500,
0.05,1,0.025,231,51,3,left,0.5274955000495538,None,3,51,231,51,239.13760287500918,,,,239.1311355419457,239.72735108295456,240.2623096249299,left,0.5274955000495538,None,demo2,001,2025-01-26_16h15.23.030,contrast_sensitivity,2024.2.4,None,2025-01-26 16h15.28.484449 -0500,
0.01,-1,0.1,232,52,3,left,0.46342887496575713,None,3,52,232,32,240.27107112493832,,,,240.26430233300198,240.86037787492387,241.32952499995008,left,0.46342887496575713,None,demo2,001,2025-01-26_16h15.23.030,contrast_sensitivity,2024.2.4,None,2025-01-26 16h15.28.484449 -0500,
0.01,1,0.4,233,53,3,right,0.2585664159851149,None,3,53,233,2,241.33838924998417,,,,241.3316921669757,241.92716199997813,242.19608966691885,right,0.2585664159851149,None,demo2,001,2025-01-26_16h15.23.030,contrast_sensitivity,2024.2.4,None,2025-01-26 16h15.28.484449 -0500,
1e-08,1,0.1,234,54,3,right,0.4674439170630649,None,3,54,234,24,242.20491362491157,,,,242.19816758297384,242.79413558298256,243.26707045792136,right,0.4674439170630649,None,demo2,001,2025-01-26_16h15.23.030,contrast_sensitivity,2024.2.4,None,2025-01-26 16h15.28.484449 -0500,
0.1,-1,0.4,235,55,3,left,0.254084833082743,None,3,55,235,10,243.2768204169115,,,,243.26916337490547,243.8646135829622,244.1291200829437,left,0.254084833082743,None,demo2,001,2025-01-26_16h15.23.030,contrast_sensitivity,2024.2.4,None,2025-01-26 16h15.28.484449 -0500,
1.0,-1,0.05,236,56,3,left,0.2990849999478087,None,3,56,236,47,244.13771520799492,,,,244.13102595799137,244.72749404190108,245.029851457919,left,0.2990849999478087,None,demo2,001,2025-01-26_16h15.23.030,contrast_sensitivity,2024.2.4,None,2025-01-26 16h15.28.484449 -0500,
0.1,1,0.2,237,57,3,right,0.3604583330452442,None,3,57,237,16,245.0376740419306,,,,245.0319256669609,245.62720170791727,245.99596854194533,right,0.3604583330452442,None,demo2,001,2025-01-26_16h15.23.030,contrast_sensitivity,2024.2.4,None,2025-01-26 16h15.28.484449 -0500,
0.0001,-1,0.4,238,58,3,left,0.3917874170001596,None,3,58,238,7,246.00441562500782,,,,245.99823437491432,246.61078612494748,247.0128157499712,left,0.3917874170001596,None,demo2,001,2025-01-26_16h15.23.030,contrast_sensitivity,2024.2.4,None,2025-01-26 16h15.28.484449 -0500,
0.0001,1,0.025,239,59,3,left,0.39295279199723154,None,3,59,239,49,247.0213564579608,,,,247.0148160419194,247.6106917919824,248.0128331669839,left,0.39295279199723154,None,demo2,001,2025-01-26_16h15.23.030,contrast_sensitivity,2024.2.4,None,2025-01-26 16h15.28.484449 -0500,
0.0001,1,0.1,240,0,4,left,0.4965436659986153,None,4,0,240,25,248.02125737490132,,,,248.01474824990146,248.6149139169138,249.11686554190237,left,0.4965436659986153,None,demo2,001,2025-01-26_16h15.23.030,contrast_sensitivity,2024.2.4,None,2025-01-26 16h15.28.484449 -0500,
0.05,1,0.2,241,1,4,right,0.3647617918904871,None,4,1,241,15,249.1270145829767,,,,249.11876304191537,249.7146949999733,250.083578791935,right,0.3647617918904871,None,demo2,001,2025-01-26_16h15.23.030,contrast_sensitivity,2024.2.4,None,2025-01-26 16h15.28.484449 -0500,
0.1,1,0.025,242,2,4,left,0.4624040420167148,None,4,2,242,52,250.09371058293618,,,,250.08544279192574,250.68200949998572,251.15017737494782,left,0.4624040420167148,None,demo2,001,2025-01-26_16h15.23.030,contrast_sensitivity,2024.2.4,None,2025-01-26 16h15.28.484449 -0500,
0.1,1,0.4,243,3,4,right,0.21162629208993167,None,4,3,243,4,251.16042708291207,,,,251.15192649990786,251.74878104194067,251.96282483299728,right,0.21162629208993167,None,demo2,001,2025-01-26_16h15.23.030,contrast_sensitivity,2024.2.4,None,2025-01-26 16h15.28.484449 -0500,
0.05,1,0.4,244,4,4,right,0.2971131668891758,None,4,4,244,3,251.97118845791556,,,,251.96480654191691,252.56043929199222,252.86296724993736,right,0.2971131668891758,None,demo2,001,2025-01-26_16h15.23.030,contrast_sensitivity,2024.2.4,None,2025-01-26 16h15.28.484449 -0500,
0.05,-1,0.025,245,5,4,right,0.7566927499137819,None,4,5,245,57,252.87172599998303,,,,252.86512379196938,253.46060829190537,254.2294152919203,right,0.7566927499137819,None,demo2,001,2025-01-26_16h15.23.030,contrast_sensitivity,2024.2.4,None,2025-01-26 16h15.28.484449 -0500,
0.0001,-1,0.025,246,6,4,left,0.3451230829814449,None,4,6,246,55,254.23823562497273,,,,254.23149595793802,254.82632608292624,255.1792054999387,left,0.3451230829814449,None,demo2,001,2025-01-26_16h15.23.030,contrast_sensitivity,2024.2.4,None,2025-01-26 16h15.28.484449 -0500,
1e-08,1,0.4,247,7,4,right,0.3710719170048833,None,4,7,247,0,255.18800379196182,,,,255.1811390829971,255.77717524999753,256.1498999999603,right,0.3710719170048833,None,demo2,001,2025-01-26_16h15.23.030,contrast_sensitivity,2024.2.4,None,2025-01-26 16h15.28.484449 -0500,
0.05,-1,0.2,248,8,4,left,0.30399216699879616,None,4,8,248,21,256.1603535419563,,,,256.15190191695,256.761212082929,257.07925429195166,left,0.30399216699879616,None,demo2,001,2025-01-26_16h15.23.030,contrast_sensitivity,2024.2.4,None,2025-01-26 16h15.28.484449 -0500,
1e-08,1,0.1,249,9,4,left,0.3344376659952104,None,4,9,249,24,257.08788358292077,,,,257.0809552919818,257.67752383300103,258.01699516701046,left,0.3344376659952104,None,demo2,001,2025-01-26_16h15.23.030,contrast_sensitivity,2024.2.4,None,2025-01-26 16h15.28.484449 -0500,
1e-08,-1,0.025,250,10,4,right,0.39572300005238503,None,4,10,250,54,258.02702058292925,,,,258.0189271669369,258.615512499935,259.01973041694146,right,0.39572300005238503,None,demo2,001,2025-01-26_16h15.23.030,contrast_sensitivity,2024.2.4,None,2025-01-26 16h15.28.484449 -0500,
0.05,-1,0.4,251,11,4,left,0.2808652080129832,None,4,11,251,9,259.02606599999126,,,,259.02138362498954,259.6153973749606,259.90412408299744,left,0.2808652080129832,None,demo2,001,2025-01-26_16h15.23.030,contrast_sensitivity,2024.2.4,None,2025-01-26 16h15.28.484449 -0500,
0.01,-1,0.1,252,12,4,right,0.3964524589246139,None,4,12,252,32,259.91003762499895,,,,259.9053066249471,260.51075783290435,260.9136249999283,right,0.3964524589246139,None,demo2,001,2025-01-26_16h15.23.030,contrast_sensitivity,2024.2.4,None,2025-01-26 16h15.28.484449 -0500,
0.01,1,0.4,253,13,4,right,0.35604395903646946,None,4,13,253,2,260.9270985419862,,,,260.9160563329933,261.51012274995446,261.8787079999456,right,0.35604395903646946,None,demo2,001,2025-01-26_16h15.23.030,contrast_sensitivity,2024.2.4,None,2025-01-26 16h15.28.484449 -0500,
0.0001,1,0.025,254,14,4,left,0.38785295898560435,None,4,14,254,49,261.8847847499419,,,,261.87999391695485,262.477235749946,262.87830949993804,left,0.38785295898560435,None,demo2,001,2025-01-26_16h15.23.030,contrast_sensitivity,2024.2.4,None,2025-01-26 16h15.28.484449 -0500,
0.1,1,0.1,255,15,4,right,0.29501587501727045,None,4,15,255,28,262.89489808294456,,,,262.87932533293497,263.4771910829004,263.77937775000464,right,0.29501587501727045,None,demo2,001,2025-01-26_16h15.23.030,contrast_sensitivity,2024.2.4,None,2025-01-26 16h15.28.484449 -0500,
1e-08,1,0.2,256,16,4,left,0.8481876669684425,None,4,16,256,12,263.78732383297756,,,,263.7814891249873,264.3769267919706,265.2297993329121,left,0.8481876669684425,None,demo2,001,2025-01-26_16h15.23.030,contrast_sensitivity,2024.2.4,None,2025-01-26 16h15.28.484449 -0500,
0.01,1,0.2,257,17,4,left,0.5548835410736501,None,4,17,257,14,265.2438672919525,,,,265.2317461669445,265.82712316699326,266.3955660829088,left,0.5548835410736501,None,demo2,001,2025-01-26_16h15.23.030,contrast_sensitivity,2024.2.4,None,2025-01-26 16h15.28.484449 -0500,
0.1,1,0.2,258,18,4,right,0.3940027500502765,None,4,18,258,16,266.40424458298367,,,,266.3975399999181,266.9940706669586,267.395722291898,right,0.3940027500502765,None,demo2,001,2025-01-26_16h15.23.030,contrast_sensitivity,2024.2.4,None,2025-01-26 16h15.28.484449 -0500,
0.05,1,0.1,259,19,4,right,0.30516220803838223,None,4,19,259,27,267.40425374999177,,,,267.3977614999749,267.9938052499201,268.3037205829751,right,0.30516220803838223,None,demo2,001,2025-01-26_16h15.23.030,contrast_sensitivity,2024.2.4,None,2025-01-26 16h15.28.484449 -0500,
0.0001,-1,0.1,260,20,4,right,0.30994016595650464,None,4,20,260,31,268.3272645419929,,,,268.3051621669438,268.8960865419358,269.21204508293886,right,0.30994016595650464,None,demo2,001,2025-01-26_16h15.23.030,contrast_sensitivity,2024.2.4,None,2025-01-26 16h15.28.484449 -0500,
0.01,1,0.05,261,21,4,left,0.5476262080483139,None,4,21,261,38,269.2202257079771,,,,269.2139431670075,269.81046524993144,270.36257424997166,left,0.5476262080483139,None,demo2,001,2025-01-26_16h15.23.030,contrast_sensitivity,2024.2.4,None,2025-01-26 16h15.28.484449 -0500,
0.1,-1,0.025,262,22,4,left,0.6075893749948591,None,4,22,262,58,270.37107474997174,,,,270.3645147079369,270.9603510419838,271.5790290829027,left,0.6075893749948591,None,demo2,001,2025-01-26_16h15.23.030,contrast_sensitivity,2024.2.4,None,2025-01-26 16h15.28.484449 -0500,
0.0001,-1,0.2,263,23,4,left,0.35536645795218647,None,4,23,263,19,271.587543041911,,,,271.5808176669525,272.1770915419329,272.54641324991826,left,0.35536645795218647,None,demo2,001,2025-01-26_16h15.23.030,contrast_sensitivity,2024.2.4,None,2025-01-26 16h15.28.484449 -0500,
0.01,1,0.1,264,24,4,left,0.6961512500420213,None,4,24,264,26,272.5547443749383,,,,272.54829212499317,273.14375145791564,273.84603675000835,left,0.6961512500420213,None,demo2,001,2025-01-26_16h15.23.030,contrast_sensitivity,2024.2.4,None,2025-01-26 16h15.28.484449 -0500,
1.0,1,0.4,265,25,4,right,0.37709750002250075,None,4,25,265,5,273.86067583295517,,,,273.8484848749358,274.44377308292314,274.82934283290524,right,0.37709750002250075,None,demo2,001,2025-01-26_16h15.23.030,contrast_sensitivity,2024.2.4,None,2025-01-26 16h15.28.484449 -0500,
0.05,-1,0.1,266,26,4,left,0.39181016699876636,None,4,26,266,33,274.83781099994667,,,,274.8312165419338,275.42708520800807,275.82956583297346,left,0.39181016699876636,None,demo2,001,2025-01-26_16h15.23.030,contrast_sensitivity,2024.2.4,None,2025-01-26 16h15.28.484449 -0500,
0.1,-1,0.05,267,27,4,left,0.34258258307818323,None,4,27,267,46,275.8379972499097,,,,275.8317584579345,276.42733054200653,276.77941845799796,left,0.34258258307818323,None,demo2,001,2025-01-26_16h15.23.030,contrast_sensitivity,2024.2.4,None,2025-01-26 16h15.28.484449 -0500,
0.0001,1,0.2,268,28,4,left,0.5736138330539688,None,4,28,268,13,276.78789329191204,,,,276.7812383749988,277.37715441698674,277.962352582952,left,0.5736138330539688,None,demo2,001,2025-01-26_16h15.23.030,contrast_sensitivity,2024.2.4,None,2025-01-26 16h15.28.484449 -0500,
0.1,-1,0.1,269,29,4,left,0.30330545804463327,None,4,29,269,34,277.9709115829319,,,,277.96445400000084,278.5604287079768,278.86578441690654,left,0.30330545804463327,None,demo2,001,2025-01-26_16h15.23.030,contrast_sensitivity,2024.2.4,None,2025-01-26 16h15.28.484449 -0500,
1e-08,1,0.025,270,30,4,left,0.45841391605790704,None,4,30,270,48,278.8769677079981,,,,278.8677081669448,279.46041020797566,279.9293215830112,left,0.45841391605790704,None,demo2,001,2025-01-26_16h15.23.030,contrast_sensitivity,2024.2.4,None,2025-01-26 16h15.28.484449 -0500,
1.0,-1,0.2,271,31,4,left,0.29047900007572025,None,4,31,271,23,279.93796062492765,,,,279.93136166699696,280.52719341695774,280.82907091698144,left,0.29047900007572025,None,demo2,001,2025-01-26_16h15.23.030,contrast_sensitivity,2024.2.4,None,2025-01-26 16h15.28.484449 -0500,
0.01,-1,0.4,272,32,4,left,0.2948282089782879,None,4,32,272,8,280.8379021669971,,,,280.8312764998991,281.4270229579415,281.7292014169507,left,0.2948282089782879,None,demo2,001,2025-01-26_16h15.23.030,contrast_sensitivity,2024.2.4,None,2025-01-26 16h15.28.484449 -0500,
0.01,1,0.025,273,33,4,right,0.8830617089988664,None,4,33,273,50,281.73744995798916,,,,281.7310885830084,282.3315945419017,283.2305311670061,right,0.8830617089988664,None,demo2,001,2025-01-26_16h15.23.030,contrast_sensitivity,2024.2.4,None,2025-01-26 16h15.28.484449 -0500,
1e-08,-1,0.4,274,34,4,left,0.4713893330190331,None,4,34,274,6,283.24399999994785,,,,283.2323943329975,283.827174291946,284.3140939580044,left,0.4713893330190331,None,demo2,001,2025-01-26_16h15.23.030,contrast_sensitivity,2024.2.4,None,2025-01-26 16h15.28.484449 -0500,
1.0,1,0.05,275,35,4,right,0.42002745892386883,None,4,35,275,41,284.3271605829941,,,,284.3161504169693,284.91358037490863,285.345897332998,right,0.42002745892386883,None,demo2,001,2025-01-26_16h15.23.030,contrast_sensitivity,2024.2.4,None,2025-01-26 16h15.28.484449 -0500,
0.05,-1,0.05,276,36,4,left,0.4153920420212671,None,4,36,276,45,285.3611907919403,,,,285.3477728749858,285.94416629197076,286.36384974990506,left,0.4153920420212671,None,demo2,001,2025-01-26_16h15.23.030,contrast_sensitivity,2024.2.4,None,2025-01-26 16h15.28.484449 -0500,
1.0,-1,0.025,277,37,4,left,0.2741118330741301,None,4,37,277,59,286.377394250012,,,,286.3657310419949,286.96043429197744,287.24609266698826,left,0.2741118330741301,None,demo2,001,2025-01-26_16h15.23.030,contrast_sensitivity,2024.2.4,None,2025-01-26 16h15.28.484449 -0500,
1.0,-1,0.4,278,38,4,left,0.2197717500384897,None,4,38,278,11,287.2546951249242,,,,287.2479804579634,287.84375591692515,288.0658197919838,left,0.2197717500384897,None,demo2,001,2025-01-26_16h15.23.030,contrast_sensitivity,2024.2.4,None,2025-01-26 16h15.28.484449 -0500,
0.1,1,0.05,279,39,4,right,0.31495595804881305,None,4,39,279,40,288.0770036249887,,,,288.0670940829441,288.6635326669784,288.98329649993684,right,0.31495595804881305,None,demo2,001,2025-01-26_16h15.23.030,contrast_sensitivity,2024.2.4,None,2025-01-26 16h15.28.484449 -0500,
1.0,-1,0.1,280,40,4,left,0.2873087920015678,None,4,40,280,35,288.9936452920083,,,,288.98444283299614,289.5792116249213,289.87902712496,left,0.2873087920015678,None,demo2,001,2025-01-26_16h15.23.030,contrast_sensitivity,2024.2.4,None,2025-01-26 16h15.28.484449 -0500,
1e-08,-1,0.1,281,41,4,left,0.5552174999611452,None,4,41,281,30,289.88777670799755,,,,289.8809890829725,290.4943549169693,291.06300704192836,left,0.5552174999611452,None,demo2,001,2025-01-26_16h15.23.030,contrast_sensitivity,2024.2.4,None,2025-01-26 16h15.28.484449 -0500,
1e-08,-1,0.2,282,42,4,right,0.36779683304484934,None,4,42,282,18,291.0715749579249,,,,291.06501454196405,291.6606064999942,292.03344033297617,right,0.36779683304484934,None,demo2,001,2025-01-26_16h15.23.030,contrast_sensitivity,2024.2.4,None,2025-01-26 16h15.28.484449 -0500,
0.01,-1,0.2,283,43,4,right,0.39083100005518645,None,4,43,283,20,292.0437738329638,,,,292.035201957915,292.6316149169579,293.0296128329355,right,0.39083100005518645,None,demo2,001,2025-01-26_16h15.23.030,contrast_sensitivity,2024.2.4,None,2025-01-26 16h15.28.484449 -0500,
0.0001,-1,0.4,284,44,4,right,0.5372559999814257,None,4,44,284,7,293.04369949991815,,,,293.03164624993224,293.62712349998765,294.1660686249379,right,0.5372559999814257,None,demo2,001,2025-01-26_16h15.23.030,contrast_sensitivity,2024.2.4,None,2025-01-26 16h15.28.484449 -0500,
0.1,-1,0.4,285,45,4,left,0.33011683297809213,None,4,45,285,10,294.176899791928,,,,294.16797712491825,294.76629304199014,295.0994843749795,left,0.33011683297809213,None,demo2,001,2025-01-26_16h15.23.030,contrast_sensitivity,2024.2.4,None,2025-01-26 16h15.28.484449 -0500,
0.01,-1,0.05,286,46,4,left,0.4143991250311956,None,4,46,286,44,295.110348249902,,,,295.10123341693543,295.69798091694247,296.11584295798093,left,0.4143991250311956,None,demo2,001,2025-01-26_16h15.23.030,contrast_sensitivity,2024.2.4,None,2025-01-26 16h15.28.484449 -0500,
1e-08,1,0.05,287,47,4,left,0.4308540419442579,None,4,47,287,36,296.127059499966,,,,296.11785883293487,296.71048004191834,297.1467726669507,left,0.4308540419442579,None,demo2,001,2025-01-26_16h15.23.030,contrast_sensitivity,2024.2.4,None,2025-01-26 16h15.28.484449 -0500,
1.0,1,0.1,288,48,4,right,0.3016437090700492,None,4,48,288,29,297.15518574998714,,,,297.1486507919617,297.74364979192615,298.0508314999752,right,0.3016437090700492,None,demo2,001,2025-01-26_16h15.23.030,contrast_sensitivity,2024.2.4,None,2025-01-26 16h15.28.484449 -0500,
0.01,-1,0.025,289,49,4,right,0.41892841702792794,None,4,49,289,56,298.06018499995116,,,,298.0526018749224,298.64838637493085,299.079716874985,right,0.41892841702792794,None,demo2,001,2025-01-26_16h15.23.030,contrast_sensitivity,2024.2.4,None,2025-01-26 16h15.28.484449 -0500,
0.0001,1,0.4,290,50,4,left,0.5441310000605881,None,4,50,290,1,299.0884875829797,,,,299.08161545800976,299.6771370419301,300.22801704192534,left,0.5441310000605881,None,demo2,001,2025-01-26_16h15.23.030,contrast_sensitivity,2024.2.4,None,2025-01-26 16h15.28.484449 -0500,
1.0,1,0.025,291,51,4,right,0.403984708013013,None,4,51,291,53,300.2337829580065,,,,300.2291852500057,300.8272142499918,301.2328577499138,right,0.403984708013013,None,demo2,001,2025-01-26_16h15.23.030,contrast_sensitivity,2024.2.4,None,2025-01-26 16h15.28.484449 -0500,
0.0001,1,0.05,292,52,4,right,0.48508112505078316,None,4,52,292,37,301.24367929191794,,,,301.23476133297663,301.8321282499237,302.33004445792176,right,0.48508112505078316,None,demo2,001,2025-01-26_16h15.23.030,contrast_sensitivity,2024.2.4,None,2025-01-26 16h15.28.484449 -0500,
0.05,1,0.025,293,53,4,right,0.35810541594401,None,4,53,293,51,302.3387609999627,,,,302.33202174992766,302.927092332975,303.29616345791146,right,0.35810541594401,None,demo2,001,2025-01-26_16h15.23.030,contrast_sensitivity,2024.2.4,None,2025-01-26 16h15.28.484449 -0500,
1.0,-1,0.05,294,54,4,left,0.4253547500120476,None,4,54,294,47,303.303756874986,,,,303.297954791924,303.8937969999388,304.3292032079771,left,0.4253547500120476,None,demo2,001,2025-01-26_16h15.23.030,contrast_sensitivity,2024.2.4,None,2025-01-26 16h15.28.484449 -0500,
0.1,-1,0.2,295,55,4,left,0.564098707982339,None,4,55,295,22,304.3379743329715,,,,304.3311847919831,304.9270869999891,305.496652666945,left,0.564098707982339,None,demo2,001,2025-01-26_16h15.23.030,contrast_sensitivity,2024.2.4,None,2025-01-26 16h15.28.484449 -0500,
0.05,1,0.05,296,56,4,right,0.3550800000084564,None,4,56,296,39,305.5105661669513,,,,305.4985393329989,306.09400529193226,306.46257683297154,right,0.3550800000084564,None,demo2,001,2025-01-26_16h15.23.030,contrast_sensitivity,2024.2.4,None,2025-01-26 16h15.28.484449 -0500,
1e-08,-1,0.05,297,57,4,right,0.29953325004316866,None,4,57,297,42,306.47133904194925,,,,306.46478779194877,307.07749900000636,307.37949716695584,right,0.29953325004316866,None,demo2,001,2025-01-26_16h15.23.030,contrast_sensitivity,2024.2.4,None,2025-01-26 16h15.28.484449 -0500,
1.0,1,0.2,298,58,4,right,0.47995645902119577,None,4,58,298,17,307.3880218329141,,,,307.3814299579244,307.97723524994217,308.46228908293415,right,0.47995645902119577,None,demo2,001,2025-01-26_16h15.23.030,contrast_sensitivity,2024.2.4,None,2025-01-26 16h15.28.484449 -0500,
0.0001,-1,0.05,299,59,4,right,0.4735937500372529,None,4,59,299,43,308.47074266697746,,,,308.4643487499561,309.0604101669742,309.5460283329012,right,0.4735937500372529,None,demo2,001,2025-01-26_16h15.23.030,contrast_sensitivity,2024.2.4,None,2025-01-26 16h15.28.484449 -0500,
0.1,1,0.2,300,0,5,right,0.41237045789603144,None,5,0,300,16,309.5549559169449,,,,309.5479321249295,310.1438284579199,310.5624433750054,right,0.41237045789603144,None,demo2,001,2025-01-26_16h15.23.030,contrast_sensitivity,2024.2.4,None,2025-01-26 16h15.28.484449 -0500,
0.01,1,0.4,301,1,5,right,0.43052287492901087,None,5,1,301,2,310.570333541953,,,,310.5643285419792,311.160476207966,311.5959739169339,right,0.43052287492901087,None,demo2,001,2025-01-26_16h15.23.030,contrast_sensitivity,2024.2.4,None,2025-01-26 16h15.28.484449 -0500,
0.01,1,0.2,302,2,5,right,0.670057165902108,None,5,2,302,14,311.6031151670031,,,,311.59805933292955,312.19386691693217,312.86670349992346,right,0.670057165902108,None,demo2,001,2025-01-26_16h15.23.030,contrast_sensitivity,2024.2.4,None,2025-01-26 16h15.28.484449 -0500,
0.01,1,0.1,303,3,5,left,0.5158648330252618,None,5,3,303,26,312.8767464169068,,,,312.8688013330102,313.4650794999907,313.98333012498915,left,0.5158648330252618,None,demo2,001,2025-01-26_16h15.23.030,contrast_sensitivity,2024.2.4,None,2025-01-26 16h15.28.484449 -0500,
0.0001,1,0.4,304,4,5,right,0.4350335419876501,None,5,4,304,1,313.9935599169694,,,,313.9855154999532,314.58189862500876,315.0290292080026,right,0.4350335419876501,None,demo2,001,2025-01-26_16h15.23.030,contrast_sensitivity,2024.2.4,None,2025-01-26 16h15.28.484449 -0500,
0.05,1,0.2,305,5,5,right,0.3746335420291871,None,5,5,305,15,315.0378416669555,,,,315.03120520792436,315.62722074997146,316.0125237919856,right,0.3746335420291871,None,demo2,001,2025-01-26_16h15.23.030,contrast_sensitivity,2024.2.4,None,2025-01-26 16h15.28.484449 -0500,
1.0,1,0.4,306,6,5,right,0.22038283303845674,None,5,6,306,5,316.0209861249896,,,,316.0144192499574,316.61042858299334,316.8461070829071,right,0.22038283303845674,None,demo2,001,2025-01-26_16h15.23.030,contrast_sensitivity,2024.2.4,None,2025-01-26 16h15.28.484449 -0500,
0.1,1,0.025,307,7,5,right,0.7911011660471559,None,5,7,307,52,316.86077158292755,,,,316.8480255419854,317.44376674992964,318.2465717080049,right,0.7911011660471559,None,demo2,001,2025-01-26_16h15.23.030,contrast_sensitivity,2024.2.4,None,2025-01-26 16h15.28.484449 -0500,
1e-08,-1,0.025,308,8,5,left,0.48507874994538724,None,5,8,308,54,318.25530441699084,,,,318.24863808299415,318.84373104199767,319.3336914170068,left,0.48507874994538724,None,demo2,001,2025-01-26_16h15.23.030,contrast_sensitivity,2024.2.4,None,2025-01-26 16h15.28.484449 -0500,
0.1,-1,0.2,309,9,5,left,0.28012779203709215,None,5,9,309,22,319.34356270800345,,,,319.3358175419271,319.93164629198145,320.2160002919845,left,0.28012779203709215,None,demo2,001,2025-01-26_16h15.23.030,contrast_sensitivity,2024.2.4,None,2025-01-26 16h15.28.484449 -0500,
1e-08,1,0.2,310,10,5,left,0.6522188750095665,None,5,10,310,12,320.22696429200005,,,,320.21793854190037,320.81554954196326,321.47925262490753,left,0.6522188750095665,None,demo2,001,2025-01-26_16h15.23.030,contrast_sensitivity,2024.2.4,None,2025-01-26 16h15.28.484449 -0500,
1e-08,-1,0.05,311,11,5,right,0.5246864579385146,None,5,11,311,42,321.48775008297525,,,,321.4810142919887,322.07727775000967,322.61285145790316,right,0.5246864579385146,None,demo2,001,2025-01-26_16h15.23.030,contrast_sensitivity,2024.2.4,None,2025-01-26 16h15.28.484449 -0500,
0.1,-1,0.025,312,12,5,left,0.684184042038396,None,5,12,312,58,322.6211488749832,,,,322.61474237497896,323.2104830829194,323.89999320800416,left,0.684184042038396,None,demo2,001,2025-01-26_16h15.23.030,contrast_sensitivity,2024.2.4,None,2025-01-26 16h15.28.484449 -0500,
0.0001,-1,0.4,313,13,5,left,0.6900792089290917,None,5,13,313,7,323.91028170799837,,,,323.9019129999215,324.49761874997057,325.19638408289757,left,0.6900792089290917,None,demo2,001,2025-01-26_16h15.23.030,contrast_sensitivity,2024.2.4,None,2025-01-26 16h15.28.484449 -0500,
1e-08,-1,0.1,314,14,5,right,0.5867427920456976,None,5,14,314,30,325.2106628329493,,,,325.1983297079569,325.7938827499747,326.38276349997614,right,0.5867427920456976,None,demo2,001,2025-01-26_16h15.23.030,contrast_sensitivity,2024.2.4,None,2025-01-26 16h15.28.484449 -0500,
0.05,1,0.4,315,15,5,right,0.27950541710015386,None,5,15,315,3,326.39373212493956,,,,326.3852686249884,326.98210054193623,327.2662267079577,right,0.27950541710015386,None,demo2,001,2025-01-26_16h15.23.030,contrast_sensitivity,2024.2.4,None,2025-01-26 16h15.28.484449 -0500,
1.0,1,0.025,316,16,5,right,0.2314050829736516,None,5,16,316,53,327.2770927499514,,,,327.2681670829188,327.8652467079228,328.1001977919368,right,0.2314050829736516,None,demo2,001,2025-01-26_16h15.23.030,contrast_sensitivity,2024.2.4,None,2025-01-26 16h15.28.484449 -0500,
0.05,1,0.05,317,17,5,right,0.30909416591748595,None,5,17,317,39,328.1101652919315,,,,328.102330124937,328.69852787500713,329.01313074992504,right,0.30909416591748595,None,demo2,001,2025-01-26_16h15.23.030,contrast_sensitivity,2024.2.4,None,2025-01-26 16h15.28.484449 -0500,
1e-08,1,0.025,318,18,5,right,0.463047125027515,None,5,18,318,48,329.0216011669254,,,,329.0150278749643,329.610515291919,330.0799910830101,right,0.463047125027515,None,demo2,001,2025-01-26_16h15.23.030,contrast_sensitivity,2024.2.4,None,2025-01-26 16h15.28.484449 -0500,
0.05,-1,0.2,319,19,5,left,0.21398191701155156,None,5,19,319,21,330.0881365420064,,,,330.08206795796286,330.6775477499468,330.89682095800526,left,0.21398191701155156,None,demo2,001,2025-01-26_16h15.23.030,contrast_sensitivity,2024.2.4,None,2025-01-26 16h15.28.484449 -0500,
0.05,-1,0.1,320,20,5,left,0.1609878750750795,None,5,20,320,33,330.91069520800374,,,,330.8987737079151,331.4937171669444,331.66219908290077,left,0.1609878750750795,None,demo2,001,2025-01-26_16h15.23.030,contrast_sensitivity,2024.2.4,None,2025-01-26 16h15.28.484449 -0500,
0.1,1,0.4,321,21,5,right,0.21219566697254777,None,5,21,321,4,331.6710500830086,,,,331.66437687492,332.2604217919288,332.4796160419937,right,0.21219566697254777,None,demo2,001,2025-01-26_16h15.23.030,contrast_sensitivity,2024.2.4,None,2025-01-26 16h15.28.484449 -0500,
0.05,1,0.025,322,22,5,left,0.40580862504430115,None,5,22,322,51,332.4883997919969,,,,332.4817593329353,333.0766314580105,333.49626174999867,left,0.40580862504430115,None,demo2,001,2025-01-26_16h15.23.030,contrast_sensitivity,2024.2.4,None,2025-01-26 16h15.28.484449 -0500,
0.01,-1,0.4,323,23,5,left,0.16654533299151808,None,5,23,323,8,333.5047340419842,,,,333.49842279194854,334.11088499997277,334.28598520800006,left,0.16654533299151808,None,demo2,001,2025-01-26_16h15.23.030,contrast_sensitivity,2024.2.4,None,2025-01-26 16h15.28.484449 -0500,
0.1,-1,0.1,324,24,5,left,0.24408462503924966,None,5,24,324,34,334.2934099169215,,,,334.2878939579241,334.88137874996755,335.12881079199724,left,0.24408462503924966,None,demo2,001,2025-01-26_16h15.23.030,contrast_sensitivity,2024.2.4,None,2025-01-26 16h15.28.484449 -0500,
0.1,1,0.1,325,25,5,right,0.13220804103184491,None,5,25,325,28,335.1374605419114,,,,335.13082374993246,335.72717745800037,335.8629849170102,right,0.13220804103184491,None,demo2,001,2025-01-26_16h15.23.030,contrast_sensitivity,2024.2.4,None,2025-01-26 16h15.28.484449 -0500,
0.05,-1,0.025,326,26,5,left,0.36205983289983124,None,5,26,326,57,335.871542125009,,,,335.8649110828992,336.460365582956,336.829963666969,left,0.36205983289983124,None,demo2,001,2025-01-26_16h15.23.030,contrast_sensitivity,2024.2.4,None,2025-01-26 16h15.28.484449 -0500,
1e-08,-1,0.4,327,27,5,left,0.229952875059098,None,5,27,327,6,336.83863491693046,,,,336.8320695000002,337.42651441693306,337.6617686669342,left,0.229952875059098,None,demo2,001,2025-01-26_16h15.23.030,contrast_sensitivity,2024.2.4,None,2025-01-26 16h15.28.484449 -0500,
0.05,-1,0.4,328,28,5,left,0.13373320805840194,None,5,28,328,9,337.66878629196435,,,,337.66363091696985,338.26058108289726,338.40022029192187,left,0.13373320805840194,None,demo2,001,2025-01-26_16h15.23.030,contrast_sensitivity,2024.2.4,None,2025-01-26 16h15.28.484449 -0500,
0.0001,1,0.025,329,29,5,left,0.4096099999733269,None,5,29,329,49,338.41008649999276,,,,338.40314633294474,339.010809166939,339.4289098329609,left,0.4096099999733269,None,demo2,001,2025-01-26_16h15.23.030,contrast_sensitivity,2024.2.4,None,2025-01-26 16h15.28.484449 -0500,
0.0001,-1,0.025,330,30,5,left,0.29732387501280755,None,5,30,330,55,339.435527499998,,,,339.43083662493154,340.0270538330078,340.32941949996166,left,0.29732387501280755,None,demo2,001,2025-01-26_16h15.23.030,contrast_sensitivity,2024.2.4,None,2025-01-26 16h15.28.484449 -0500,
0.0001,1,0.1,331,31,5,left,0.3332050000317395,None,5,31,331,25,340.33778174989857,,,,340.33130387496203,340.92706120794173,341.26273970794864,left,0.3332050000317395,None,demo2,001,2025-01-26_16h15.23.030,contrast_sensitivity,2024.2.4,None,2025-01-26 16h15.28.484449 -0500,
0.1,1,0.05,332,32,5,right,0.19078266608994454,None,5,32,332,40,341.2719934169436,,,,341.2646103329025,341.860465082922,342.0628195418976,right,0.19078266608994454,None,demo2,001,2025-01-26_16h15.23.030,contrast_sensitivity,2024.2.4,None,2025-01-26 16h15.28.484449 -0500,
1.0,-1,0.4,333,33,5,left,0.17820229195058346,None,5,33,333,11,342.07132770796306,,,,342.0647566670086,342.6601013329346,342.8462375419913,left,0.17820229195058346,None,demo2,001,2025-01-26_16h15.23.030,contrast_sensitivity,2024.2.4,None,2025-01-26 16h15.28.484449 -0500,
1e-08,1,0.1,334,34,5,left,0.2096235000062734,None,5,34,334,24,342.85402237495873,,,,342.8481953749433,343.44376312498935,343.66226254194044,left,0.2096235000062734,None,demo2,001,2025-01-26_16h15.23.030,contrast_sensitivity,2024.2.4,None,2025-01-26 16h15.28.484449 -0500,
0.1,-1,0.05,335,35,5,left,0.10763220896478742,None,5,35,335,46,343.6705471249297,,,,343.6639072499238,344.2605598329101,344.3790107499808,left,0.10763220896478742,None,demo2,001,2025-01-26_16h15.23.030,contrast_sensitivity,2024.2.4,None,2025-01-26 16h15.28.484449 -0500,
1.0,1,0.2,336,36,5,right,0.043839083053171635,None,5,36,336,17,344.38738079194445,,,,344.3810024999548,344.9943457079353,345.04590124997776,right,0.043839083053171635,None,demo2,001,2025-01-26_16h15.23.030,contrast_sensitivity,2024.2.4,None,2025-01-26 16h15.28.484449 -0500,
0.0001,1,0.2,337,37,5,right,0.27329787495546043,None,5,37,337,13,345.05180758296046,,,,345.04718079196755,345.64381162496284,345.9293931249995,right,0.27329787495546043,None,demo2,001,2025-01-26_16h15.23.030,contrast_sensitivity,2024.2.4,None,2025-01-26 16h15.28.484449 -0500,
1.0,1,0.05,338,38,5,right,0.04092891700565815,None,5,38,338,41,345.93853470799513,,,,345.9315508749569,346.52720287500415,346.5794335419778,right,0.04092891700565815,None,demo2,001,2025-01-26_16h15.23.030,contrast_sensitivity,2024.2.4,None,2025-01-26 16h15.28.484449 -0500,
0.01,-1,0.05,339,39,5,right,0.40902224997989833,None,5,39,339,44,346.58879449998494,,,,346.58141012489796,347.17711079190485,347.5961099169217,right,0.40902224997989833,None,demo2,001,2025-01-26_16h15.23.030,contrast_sensitivity,2024.2.4,None,2025-01-26 16h15.28.484449 -0500,
1.0,-1,0.025,340,40,5,left,0.0793896249961108,None,5,40,340,59,347.60450462496374,,,,347.5983691669535,348.1938176249387,348.27894633298274,left,0.0793896249961108,None,demo2,001,2025-01-26_16h15.23.030,contrast_sensitivity,2024.2.4,None,2025-01-26 16h15.28.484449 -0500,
0.05,1,0.1,341,41,5,right,0.22785849997308105,None,5,41,341,27,348.28675599989947,,,,348.2807440829929,348.8773746249499,349.11320374999195,right,0.22785849997308105,None,demo2,001,2025-01-26_16h15.23.030,contrast_sensitivity,2024.2.4,None,2025-01-26 16h15.28.484449 -0500,
0.1,-1,0.4,342,42,5,left,0.14857612492050976,None,5,42,342,10,349.12181683292147,,,,349.11541762494016,349.71049674996175,349.86302233301103,left,0.14857612492050976,None,demo2,001,2025-01-26_16h15.23.030,contrast_sensitivity,2024.2.4,None,2025-01-26 16h15.28.484449 -0500,
0.0001,-1,0.2,343,43,5,left,0.15752679109573364,None,5,43,343,19,349.8719326669816,,,,349.8651661250042,350.4656205829233,350.6284922499908,left,0.15752679109573364,None,demo2,001,2025-01-26_16h15.23.030,contrast_sensitivity,2024.2.4,None,2025-01-26 16h15.28.484449 -0500,
1.0,-1,0.1,344,44,5,left,0.05293616699054837,None,5,44,344,35,350.63566974992864,,,,350.62970904191025,351.22710504196584,351.283641582937,left,0.05293616699054837,None,demo2,001,2025-01-26_16h15.23.030,contrast_sensitivity,2024.2.4,None,2025-01-26 16h15.28.484449 -0500,
0.01,-1,0.1,345,45,5,left,0.11324437498115003,None,5,45,345,32,351.29338754189666,,,,351.285170041956,351.88281749992166,351.9994987079408,left,0.11324437498115003,None,demo2,001,2025-01-26_16h15.23.030,contrast_sensitivity,2024.2.4,None,2025-01-26 16h15.28.484449 -0500,
0.0001,1,0.05,346,46,5,left,0.5062084579840302,None,5,46,346,37,352.0101759999525,,,,352.00150633300655,352.5938029999379,353.1121849579504,left,0.5062084579840302,None,demo2,001,2025-01-26_16h15.23.030,contrast_sensitivity,2024.2.4,None,2025-01-26 16h15.28.484449 -0500,
0.01,-1,0.025,347,47,5,right,0.28157741692848504,None,5,47,347,56,353.12094445794355,,,,353.11416624998674,353.7104098749114,353.9955744999461,right,0.28157741692848504,None,demo2,001,2025-01-26_16h15.23.030,contrast_sensitivity,2024.2.4,None,2025-01-26 16h15.28.484449 -0500,
1.0,-1,0.2,348,48,5,left,0.24314833304379135,None,5,48,348,23,354.0024229999399,,,,353.997637249995,354.5937954999972,354.8451527080033,left,0.24314833304379135,None,demo2,001,2025-01-26_16h15.23.030,contrast_sensitivity,2024.2.4,None,2025-01-26 16h15.28.484449 -0500,
1.0,-1,0.05,349,49,5,left,0.1482161250896752,None,5,49,349,47,354.85054358292837,,,,354.84658837493043,355.4437373749679,355.5952740419889,left,0.1482161250896752,None,demo2,001,2025-01-26_16h15.23.030,contrast_sensitivity,2024.2.4,None,2025-01-26 16h15.28.484449 -0500,
0.01,-1,0.2,350,50,5,left,0.1700734170153737,None,5,50,350,20,355.60307320801076,,,,355.5972127079731,356.193809249904,356.366309416946,left,0.1700734170153737,None,demo2,001,2025-01-26_16h15.23.030,contrast_sensitivity,2024.2.4,None,2025-01-26 16h15.28.484449 -0500,
0.05,-1,0.05,351,51,5,left,0.20446649997029454,None,5,51,351,45,356.3769618329825,,,,356.3681924579432,356.96041649999097,357.166289707995,left,0.20446649997029454,None,demo2,001,2025-01-26_16h15.23.030,contrast_sensitivity,2024.2.4,None,2025-01-26 16h15.28.484449 -0500,
0.01,1,0.025,352,52,5,left,0.33251570898573846,None,5,52,352,50,357.17678429197986,,,,357.16835562500637,357.76533562492114,358.11253633291926,left,0.33251570898573846,None,demo2,001,2025-01-26_16h15.23.030,contrast_sensitivity,2024.2.4,None,2025-01-26 16h15.28.484449 -0500,
0.0001,-1,0.05,353,53,5,left,0.3870320830028504,None,5,53,353,43,358.12127674999647,,,,358.11445187497884,358.7097774170106,359.11113358300645,left,0.3870320830028504,None,demo2,001,2025-01-26_16h15.23.030,contrast_sensitivity,2024.2.4,None,2025-01-26 16h15.28.484449 -0500,
1e-08,1,0.05,354,54,5,left,0.2906536670634523,None,5,54,354,36,359.1163033749908,,,,359.11241658299696,359.6982272499008,359.9962584580062,left,0.2906536670634523,None,demo2,001,2025-01-26_16h15.23.030,contrast_sensitivity,2024.2.4,None,2025-01-26 16h15.28.484449 -0500,
0.01,1,0.05,355,55,5,left,0.49315641704015434,None,5,55,355,38,360.0051181250019,,,,359.99831979197916,360.5937940829899,361.0961644999916,left,0.49315641704015434,None,demo2,001,2025-01-26_16h15.23.030,contrast_sensitivity,2024.2.4,None,2025-01-26 16h15.28.484449 -0500,
1.0,1,0.1,356,56,5,right,0.26602129195816815,None,5,56,356,29,361.1037879999494,,,,361.09833645797335,361.69377091689967,361.962892291951,right,0.26602129195816815,None,demo2,001,2025-01-26_16h15.23.030,contrast_sensitivity,2024.2.4,None,2025-01-26 16h15.28.484449 -0500,
0.0001,-1,0.1,357,57,5,right,0.15342837502248585,None,5,57,357,31,361.97072112490423,,,,361.96516383299604,362.56032674992457,362.7162555420073,right,0.15342837502248585,None,demo2,001,2025-01-26_16h15.23.030,contrast_sensitivity,2024.2.4,None,2025-01-26 16h15.28.484449 -0500,
1e-08,-1,0.2,358,58,5,right,0.5023430829169229,None,5,58,358,18,362.7269144579768,,,,362.7180656249402,363.31541774992365,363.82923349994235,right,0.5023430829169229,None,demo2,001,2025-01-26_16h15.23.030,contrast_sensitivity,2024.2.4,None,2025-01-26 16h15.28.484449 -0500,
1e-08,1,0.4,359,59,5,left,0.36168679199181497,None,5,59,359,0,363.83768308290746,,,,363.83113029191736,364.4271918749437,364.7961529579479,left,0.36168679199181497,None,demo2,001,2025-01-26_16h15.23.030,contrast_sensitivity,2024.2.4,None,2025-01-26 16h15.28.484449 -0500,
