contrast,location,n_cycles,thisN,thisTrialN,thisRepN,response.keys,response.rt,response.duration,trials.thisRepN,trials.thisTrialN,trials.thisN,trials.thisIndex,thisRow.t,notes,begin_experiment.started,begin_experiment.stopped,trial.started,response.started,trial.stopped,trials.response.keys,trials.response.rt,trials.response.duration,participant,session,date,expName,psychopyVersion,frameRate,expStart
,,,,,,,,,,,,,,,0.006652084,0.9779440419515595,,,,,,,demo,001,2025-02-03_14h23.25.595,contrast_sensitivity,2024.2.4,None,2025-02-03 14h23.30.336431 -0500
0.0001,-1,1,0,0,0,left,1.2897239989833906,None,0,0,0,9,0.991225834,,,,0.9861067089950666,1.5737308339448646,2.875034875003621,left,1.2897239989833906,None,demo,001,2025-02-03_14h23.25.595,contrast_sensitivity,2024.2.4,None,2025-02-03 14h23.30.336431 -0500
0.1,-1,4,1,1,0,left,0.4633115000324324,None,0,1,1,40,2.8806895839516073,,,,2.876522250007838,3.4730997919104993,3.9416955419583246,left,0.4633115000324324,None,demo,001,2025-02-03_14h23.25.595,contrast_sensitivity,2024.2.4,None,2025-02-03 14h23.30.336431 -0500
0.001,-1,16,2,2,0,left,0.30719262501224875,None,0,2,2,66,3.953251749975607,,,,3.9434831669786945,4.528348958934657,4.843101791921072,left,0.30719262501224875,None,demo,001,2025-02-03_14h23.25.595,contrast_sensitivity,2024.2.4,None,2025-02-03 14h23.30.336431 -0500
1e-06,1,4,3,3,0,left,0.2955249169608578,None,0,3,3,29,4.851428833906539,,,,4.845503250020556,5.440804208978079,5.7412305,left,0.2955249169608578,None,demo,001,2025-02-03_14h23.25.595,contrast_sensitivity,2024.2.4,None,2025-02-03 14h23.30.336431 -0500
0.1,1,1,4,4,0,right,0.2208291239803657,None,0,4,4,5,5.746317041921429,,,,5.742609958979301,6.326600999920629,6.559878959,right,0.2208291239803657,None,demo,001,2025-02-03_14h23.25.595,contrast_sensitivity,2024.2.4,None,2025-02-03 14h23.30.336431 -0500
1e-08,1,2,5,5,0,left,0.3019769580569118,None,0,5,5,14,6.567918459,,,,6.562165749957785,7.157311124959961,7.476144584012218,left,0.3019769580569118,None,demo,001,2025-02-03_14h23.25.595,contrast_sensitivity,2024.2.4,None,2025-02-03 14h23.30.336431 -0500
0.0001,-1,8,6,6,0,left,0.082898208,None,0,6,6,51,7.490785249974579,,,,7.478364542,8.091378999990411,8.176131792017259,left,0.082898208,None,demo,001,2025-02-03_14h23.25.595,contrast_sensitivity,2024.2.4,None,2025-02-03 14h23.30.336431 -0500
1,-1,16,7,7,0,left,0.1531914999941364,None,0,7,7,69,8.184971874929033,,,,8.178134874906391,8.774052374996245,8.929931083926931,left,0.1531914999941364,None,demo,001,2025-02-03_14h23.25.595,contrast_sensitivity,2024.2.4,None,2025-02-03 14h23.30.336431 -0500
1e-06,-1,1,8,8,0,left,0.090882458,None,0,8,8,8,8.940364666981623,,,,8.932365917018615,9.528479125001468,9.626323999953456,left,0.090882458,None,demo,001,2025-02-03_14h23.25.595,contrast_sensitivity,2024.2.4,None,2025-02-03 14h23.30.336431 -0500
0.001,1,1,9,9,0,left,0.15300208295229822,None,0,9,9,3,9.633335708989762,,,,9.628428416908719,10.224215124966577,10.380497584003024,left,0.15300208295229822,None,demo,001,2025-02-03_14h23.25.595,contrast_sensitivity,2024.2.4,None,2025-02-03 14h23.30.336431 -0500
0.1,1,16,10,10,0,right,0.15439245803281665,None,0,10,10,61,10.390364583930932,,,,10.382821499952115,10.97682379197795,11.142304083914496,right,0.15439245803281665,None,demo,001,2025-02-03_14h23.25.595,contrast_sensitivity,2024.2.4,None,2025-02-03 14h23.30.336431 -0500
1,-1,1,11,11,0,left,0.089438125,None,0,11,11,13,11.148489209008403,,,,11.143975624931045,11.739787541911937,11.841252208920196,left,0.089438125,None,demo,001,2025-02-03_14h23.25.595,contrast_sensitivity,2024.2.4,None,2025-02-03 14h23.30.336431 -0500
1e-08,-1,1,12,12,0,left,0.051342040998861194,None,0,12,12,7,11.846559749916196,,,,11.84273466700688,12.428857458988205,12.493133625015616,left,0.051342040998861194,None,demo,001,2025-02-03_14h23.25.595,contrast_sensitivity,2024.2.4,None,2025-02-03 14h23.30.336431 -0500
1e-08,1,8,13,13,0,left,0.066188541,None,0,13,13,42,12.507327583967708,,,,12.494604041916318,13.090978541993536,13.160203874926083,left,0.066188541,None,demo,001,2025-02-03_14h23.25.595,contrast_sensitivity,2024.2.4,None,2025-02-03 14h23.30.336431 -0500
0.01,-1,1,14,14,0,left,0.26861766597721726,None,0,14,14,11,13.167980208992958,,,,13.162171499920078,13.75751849997323,14.030361959012225,left,0.26861766597721726,None,demo,001,2025-02-03_14h23.25.595,contrast_sensitivity,2024.2.4,None,2025-02-03 14h23.30.336431 -0500
1e-06,-1,8,15,15,0,left,0.072981208,None,0,15,15,50,14.040388458990492,,,,14.032593666925095,14.628185209003277,14.709189584013075,left,0.072981208,None,demo,001,2025-02-03_14h23.25.595,contrast_sensitivity,2024.2.4,None,2025-02-03 14h23.30.336431 -0500
1e-06,1,8,16,16,0,left,0.025168166030198336,None,0,16,16,43,14.71578974998556,,,,14.711553124943748,15.308367584017105,15.343964708968997,left,0.025168166030198336,None,demo,001,2025-02-03_14h23.25.595,contrast_sensitivity,2024.2.4,None,2025-02-03 14h23.30.336431 -0500
0.0001,1,8,17,17,0,right,0.12775616603903472,None,0,17,17,44,15.357189291971736,,,,15.346295708906837,15.945358208962716,16.075233625015244,right,0.12775616603903472,None,demo,001,2025-02-03_14h23.25.595,contrast_sensitivity,2024.2.4,None,2025-02-03 14h23.30.336431 -0500
1,-1,4,18,18,0,left,0.061682083061896265,None,0,18,18,41,16.081447749980725,,,,16.076838916982524,16.674433375010267,16.743732791976072,left,0.061682083061896265,None,demo,001,2025-02-03_14h23.25.595,contrast_sensitivity,2024.2.4,None,2025-02-03 14h23.30.336431 -0500
1e-08,-1,8,19,19,0,left,0.2233697910560295,None,0,19,19,49,16.757597249932587,,,,16.74583495897241,17.36168450000696,17.591149833984673,left,0.2233697910560295,None,demo,001,2025-02-03_14h23.25.595,contrast_sensitivity,2024.2.4,None,2025-02-03 14h23.30.336431 -0500
0.1,-1,8,20,20,0,left,0.050543583,None,0,20,20,54,17.594879666925408,,,,17.59233883395791,18.19146899995394,18.259556749952026,left,0.050543583,None,demo,001,2025-02-03_14h23.25.595,contrast_sensitivity,2024.2.4,None,2025-02-03 14h23.30.336431 -0500
0.001,-1,8,21,21,0,left,0.029318458051420748,None,0,21,21,52,18.27516287495382,,,,18.26150725001935,18.87472533399705,18.909747749916278,left,0.029318458051420748,None,demo,001,2025-02-03_14h23.25.595,contrast_sensitivity,2024.2.4,None,2025-02-03 14h23.30.336431 -0500
1e-08,-1,2,22,22,0,left,0.034518999978899956,None,0,22,22,21,18.924192041973583,,,,18.91175149998162,19.506478249910288,19.54404483397957,left,0.034518999978899956,None,demo,001,2025-02-03_14h23.25.595,contrast_sensitivity,2024.2.4,None,2025-02-03 14h23.30.336431 -0500
0.01,1,4,23,23,0,right,0.21910279197618365,None,0,23,23,32,19.556451833923347,,,,19.545227249967866,20.143937541986816,20.376957000000402,right,0.21910279197618365,None,demo,001,2025-02-03_14h23.25.595,contrast_sensitivity,2024.2.4,None,2025-02-03 14h23.30.336431 -0500
0.001,1,16,24,24,0,right,0.41689658304676414,None,0,24,24,59,20.39054341695737,,,,20.379202791955322,20.991022208938375,21.411629249923863,right,0.41689658304676414,None,demo,001,2025-02-03_14h23.25.595,contrast_sensitivity,2024.2.4,None,2025-02-03 14h23.30.336431 -0500
0.01,1,8,25,25,0,left,0.023918458027765155,None,0,25,25,46,21.42382679192815,,,,21.41301333392039,22.007036958937533,22.04261449992191,left,0.023918458027765155,None,demo,001,2025-02-03_14h23.25.595,contrast_sensitivity,2024.2.4,None,2025-02-03 14h23.30.336431 -0500
1,1,2,26,26,0,left,0.6870024160016328,None,0,26,26,20,22.050793208996765,,,,22.04482499998994,22.657888958929107,23.346724708913825,left,0.6870024160016328,None,demo,001,2025-02-03_14h23.25.595,contrast_sensitivity,2024.2.4,None,2025-02-03 14h23.30.336431 -0500
1e-08,-1,16,27,27,0,left,0.3325569999869913,None,0,27,27,63,23.356973833986558,,,,23.349077499937266,23.94530170899816,24.28009299992118,left,0.3325569999869913,None,demo,001,2025-02-03_14h23.25.595,contrast_sensitivity,2024.2.4,None,2025-02-03 14h23.30.336431 -0500
1e-08,1,1,28,28,0,right,0.4054906660458073,None,0,28,28,0,24.290356084005907,,,,24.282334791962057,24.89138504199218,25.310155708924867,right,0.4054906660458073,None,demo,001,2025-02-03_14h23.25.595,contrast_sensitivity,2024.2.4,None,2025-02-03 14h23.30.336431 -0500
0.1,-1,2,29,29,0,left,0.17480070795863867,None,0,29,29,26,25.318733708932996,,,,25.312650583917275,25.907130250008777,26.096051333937794,left,0.17480070795863867,None,demo,001,2025-02-03_14h23.25.595,contrast_sensitivity,2024.2.4,None,2025-02-03 14h23.30.336431 -0500
0.1,-1,1,30,30,0,left,0.7800602909410372,None,0,30,30,12,26.107224166975357,,,,26.098182042012922,26.707714749965817,27.491697959019803,left,0.7800602909410372,None,demo,001,2025-02-03_14h23.25.595,contrast_sensitivity,2024.2.4,None,2025-02-03 14h23.30.336431 -0500
0.1,1,8,31,31,0,right,0.045036374940536916,None,0,31,31,47,27.497010624967515,,,,27.493103833985515,28.089746541925706,28.14106587495189,right,0.045036374940536916,None,demo,001,2025-02-03_14h23.25.595,contrast_sensitivity,2024.2.4,None,2025-02-03 14h23.30.336431 -0500
1e-08,1,16,32,32,0,right,0.9146464999066666,None,0,32,32,56,28.146452417015098,,,,28.14245033392217,28.729156374931335,29.64686117,right,0.9146464999066666,None,demo,001,2025-02-03_14h23.25.595,contrast_sensitivity,2024.2.4,None,2025-02-03 14h23.30.336431 -0500
0.01,-1,4,33,33,0,left,0.030900417012162507,None,0,33,33,39,29.657016334007494,,,,29.649052875000052,30.257854708936065,30.293646625010297,left,0.030900417012162507,None,demo,001,2025-02-03_14h23.25.595,contrast_sensitivity,2024.2.4,None,2025-02-03 14h23.30.336431 -0500
1,1,8,34,34,0,right,0.148084,None,0,34,34,48,30.307161125005223,,,,30.295889416942373,30.890661333920434,31.043341499986127,right,0.148084,None,demo,001,2025-02-03_14h23.25.595,contrast_sensitivity,2024.2.4,None,2025-02-03 14h23.30.336431 -0500
1e-08,1,4,35,35,0,left,0.085198583,None,0,35,35,28,31.057402916951105,,,,31.04544395895209,31.640647166990675,31.730812208959833,left,0.085198583,None,demo,001,2025-02-03_14h23.25.595,contrast_sensitivity,2024.2.4,None,2025-02-03 14h23.30.336431 -0500
0.0001,-1,4,36,36,0,left,0.18931204092223197,None,0,36,36,37,31.739392874995247,,,,31.732939334004186,32.328434749972075,32.52655816695187,left,0.18931204092223197,None,demo,001,2025-02-03_14h23.25.595,contrast_sensitivity,2024.2.4,None,2025-02-03 14h23.30.336431 -0500
1e-06,-1,4,37,37,0,left,0.13503604102879763,None,0,37,37,36,32.54013400000986,,,,32.52801041700877,33.141621791990474,33.29303625,left,0.13503604102879763,None,demo,001,2025-02-03_14h23.25.595,contrast_sensitivity,2024.2.4,None,2025-02-03 14h23.30.336431 -0500
0.001,1,2,38,38,0,left,0.18372362398076802,None,0,38,38,17,33.30796150001697,,,,33.295147666940466,33.90793699992355,34.09712499997113,left,0.18372362398076802,None,demo,001,2025-02-03_14h23.25.595,contrast_sensitivity,2024.2.4,None,2025-02-03 14h23.30.336431 -0500
0.0001,-1,16,39,39,0,left,0.13041754195000976,None,0,39,39,65,34.10661633394193,,,,34.099296083906665,34.69628487492446,34.831559374928474,left,0.13041754195000976,None,demo,001,2025-02-03_14h23.25.595,contrast_sensitivity,2024.2.4,None,2025-02-03 14h23.30.336431 -0500
0.001,1,8,40,40,0,left,0.017430292,None,0,40,40,45,34.84030066698324,,,,34.83356767,35.42619720892981,35.45857454196084,left,0.017430292,None,demo,001,2025-02-03_14h23.25.595,contrast_sensitivity,2024.2.4,None,2025-02-03 14h23.30.336431 -0500
0.01,-1,16,41,41,0,right,0.049591458,None,0,41,41,67,35.465024999924935,,,,35.46019983,36.056413083919324,36.10783074994106,right,0.049591458,None,demo,001,2025-02-03_14h23.25.595,contrast_sensitivity,2024.2.4,None,2025-02-03 14h23.30.336431 -0500
0.0001,1,4,42,42,0,left,0.059577041,None,0,42,42,30,36.11319904192351,,,,36.109133958932944,36.69505824998487,36.75952995894477,left,0.059577041,None,demo,001,2025-02-03_14h23.25.595,contrast_sensitivity,2024.2.4,None,2025-02-03 14h23.30.336431 -0500
0.0001,1,1,43,43,0,left,0.3330528329825029,None,0,43,43,2,36.76753512490541,,,,36.761811874923296,37.35753612499684,37.69379387493245,left,0.3330528329825029,None,demo,001,2025-02-03_14h23.25.595,contrast_sensitivity,2024.2.4,None,2025-02-03 14h23.30.336431 -0500
0.01,-1,8,44,44,0,left,0.2648513749008998,None,0,44,44,53,37.70724616700318,,,,37.69605208397843,38.290723584010266,38.55964537500404,left,0.2648513749008998,None,demo,001,2025-02-03_14h23.25.595,contrast_sensitivity,2024.2.4,None,2025-02-03 14h23.30.336431 -0500
1,1,4,45,45,0,right,0.2431714580161497,None,0,45,45,34,38.56787270901259,,,,38.561572166974656,39.15749887493439,39.41010654193815,right,0.2431714580161497,None,demo,001,2025-02-03_14h23.25.595,contrast_sensitivity,2024.2.4,None,2025-02-03 14h23.30.336431 -0500
0.01,1,2,46,46,0,right,0.39911941695027053,None,0,46,46,18,39.41923008393496,,,,39.41264979192056,40.00742020900361,40.40990841691382,right,0.39911941695027053,None,demo,001,2025-02-03_14h23.25.595,contrast_sensitivity,2024.2.4,None,2025-02-03 14h23.30.336431 -0500
1e-06,-1,2,47,47,0,left,0.30016279104165733,None,0,47,47,22,40.41612058400642,,,,40.41174799995497,41.00731000001542,41.309126709005795,left,0.30016279104165733,None,demo,001,2025-02-03_14h23.25.595,contrast_sensitivity,2024.2.4,None,2025-02-03 14h23.30.336431 -0500
0.0001,1,16,48,48,0,left,0.36180595797486603,None,0,48,48,58,41.317852708976716,,,,41.31115754193161,41.907662458950654,42.27636658400297,left,0.36180595797486603,None,demo,001,2025-02-03_14h23.25.595,contrast_sensitivity,2024.2.4,None,2025-02-03 14h23.30.336431 -0500
0.01,1,16,49,49,0,right,0.2695942079881206,None,0,49,49,60,42.29051067,,,,42.27865466696676,42.891833291971125,43.17473954195157,right,0.2695942079881206,None,demo,001,2025-02-03_14h23.25.595,contrast_sensitivity,2024.2.4,None,2025-02-03 14h23.30.336431 -0500
0.01,1,1,50,50,0,left,0.39312012400478125,None,0,50,50,4,43.180491208913736,,,,43.17595412500668,43.77327466697898,44.17567829194013,left,0.39312012400478125,None,demo,001,2025-02-03_14h23.25.595,contrast_sensitivity,2024.2.4,None,2025-02-03 14h23.30.336431 -0500
1,-1,8,51,51,0,left,0.367940875,None,0,51,51,55,44.18122562,,,,44.17725737497676,44.77344095893204,45.146246499964036,left,0.367940875,None,demo,001,2025-02-03_14h23.25.595,contrast_sensitivity,2024.2.4,None,2025-02-03 14h23.30.336431 -0500
0.001,-1,4,52,52,0,left,0.14672383293509483,None,0,52,52,38,45.15699925,,,,45.14863967,45.745673166937195,45.89606175001245,left,0.14672383293509483,None,demo,001,2025-02-03_14h23.25.595,contrast_sensitivity,2024.2.4,None,2025-02-03 14h23.30.336431 -0500
0.001,-1,2,53,53,0,left,0.17734316596761346,None,0,53,53,24,45.90699154196773,,,,45.89847033,46.49504937499296,46.67639512498863,left,0.17734316596761346,None,demo,001,2025-02-03_14h23.25.595,contrast_sensitivity,2024.2.4,None,2025-02-03 14h23.30.336431 -0500
0.1,-1,16,54,54,0,left,0.45712116605136544,None,0,54,54,68,46.69047212495934,,,,46.67858083394822,47.27421546,47.733326499932446,left,0.45712116605136544,None,demo,001,2025-02-03_14h23.25.595,contrast_sensitivity,2024.2.4,None,2025-02-03 14h23.30.336431 -0500
0.01,-1,2,55,55,0,left,0.5764017490437254,None,0,55,55,25,47.74016779195517,,,,47.734280708944425,48.32612187496852,48.909670916968025,left,0.5764017490437254,None,demo,001,2025-02-03_14h23.25.595,contrast_sensitivity,2024.2.4,None,2025-02-03 14h23.30.336431 -0500
0.001,1,4,56,56,0,right,0.19381249998696148,None,0,56,56,31,48.917836874956265,,,,48.91193429194391,49.52446670900099,49.72596370894462,right,0.19381249998696148,None,demo,001,2025-02-03_14h23.25.595,contrast_sensitivity,2024.2.4,None,2025-02-03 14h23.30.336431 -0500
0.1,1,2,57,57,0,right,0.15045291592832655,None,0,57,57,19,49.73451945895795,,,,49.728162208921276,50.32481433392968,50.47752729197964,right,0.15045291592832655,None,demo,001,2025-02-03_14h23.25.595,contrast_sensitivity,2024.2.4,None,2025-02-03 14h23.30.336431 -0500
1,-1,2,58,58,0,left,0.076759333,None,0,58,58,27,50.489985916996375,,,,50.47921508399304,51.07457041693851,51.160147042013705,left,0.076759333,None,demo,001,2025-02-03_14h23.25.595,contrast_sensitivity,2024.2.4,None,2025-02-03 14h23.30.336431 -0500
0.1,1,4,59,59,0,right,0.2697859579930082,None,0,59,59,33,51.17404987500049,,,,51.16216770897154,51.75647274998482,52.02956491697114,right,0.2697859579930082,None,demo,001,2025-02-03_14h23.25.595,contrast_sensitivity,2024.2.4,None,2025-02-03 14h23.30.336431 -0500
1,1,1,60,60,0,right,0.087093167,None,0,60,60,6,52.039528624969535,,,,52.03102487500291,52.62617391697131,52.72567637497559,right,0.087093167,None,demo,001,2025-02-03_14h23.25.595,contrast_sensitivity,2024.2.4,None,2025-02-03 14h23.30.336431 -0500
0.0001,1,2,61,61,0,right,0.40282316599041224,None,0,61,61,16,52.734513208968565,,,,52.72744446,53.32433749991469,53.72931641701143,right,0.40282316599041224,None,demo,001,2025-02-03_14h23.25.595,contrast_sensitivity,2024.2.4,None,2025-02-03 14h23.30.336431 -0500
1e-06,-1,16,62,62,0,left,0.051715208,None,0,62,62,64,53.74044166691601,,,,53.73146841698326,54.32849012501538,54.39249812497292,left,0.051715208,None,demo,001,2025-02-03_14h23.25.595,contrast_sensitivity,2024.2.4,None,2025-02-03 14h23.30.336431 -0500
1e-06,1,2,63,63,0,left,0.5242966660298407,None,0,63,63,15,54.40081137500238,,,,54.39455641701352,54.990819999948144,55.52660554193426,left,0.5242966660298407,None,demo,001,2025-02-03_14h23.25.595,contrast_sensitivity,2024.2.4,None,2025-02-03 14h23.30.336431 -0500
1e-08,-1,4,64,64,0,left,0.7478252080036327,None,0,64,64,35,55.53559474996291,,,,55.528875084011815,56.12429170892574,56.87653770891484,left,0.7478252080036327,None,demo,001,2025-02-03_14h23.25.595,contrast_sensitivity,2024.2.4,None,2025-02-03 14h23.30.336431 -0500
1e-06,1,1,65,65,0,left,0.2929968750104308,None,0,65,65,1,56.890681999968365,,,,56.87885329197161,57.47408633399755,57.77590158395469,left,0.2929968750104308,None,demo,001,2025-02-03_14h23.25.595,contrast_sensitivity,2024.2.4,None,2025-02-03 14h23.30.336431 -0500
1e-06,1,16,66,66,0,right,0.078242708,None,0,66,66,57,57.784665958955884,,,,57.77762091695331,58.37387670890894,58.459634833969176,right,0.078242708,None,demo,001,2025-02-03_14h23.25.595,contrast_sensitivity,2024.2.4,None,2025-02-03 14h23.30.336431 -0500
0.0001,-1,2,67,67,0,left,0.29071754205506295,None,0,67,67,23,58.46765470900573,,,,58.46191779198125,59.0743005,59.37677487498149,left,0.29071754205506295,None,demo,001,2025-02-03_14h23.25.595,contrast_sensitivity,2024.2.4,None,2025-02-03 14h23.30.336431 -0500
0.001,-1,1,68,68,0,left,0.1268295,None,0,68,68,10,59.38487979199272,,,,59.37908408395015,59.97318529197946,60.107826499966905,left,0.1268295,None,demo,001,2025-02-03_14h23.25.595,contrast_sensitivity,2024.2.4,None,2025-02-03 14h23.30.336431 -0500
1,1,16,69,69,0,right,0.14964804204646498,None,0,69,69,62,60.11290949990507,,,,60.109178124926984,60.70643387490418,60.858972499961965,right,0.14964804204646498,None,demo,001,2025-02-03_14h23.25.595,contrast_sensitivity,2024.2.4,None,2025-02-03 14h23.30.336431 -0500
1,1,2,70,0,1,right,0.19981662498321384,None,1,0,70,20,60.86721429193858,,,,60.86094666691497,61.44619141693693,61.65929092,right,0.19981662498321384,None,demo,001,2025-02-03_14h23.25.595,contrast_sensitivity,2024.2.4,None,2025-02-03 14h23.30.336431 -0500
0.0001,-1,16,71,1,1,right,0.21358279197011143,None,1,1,71,65,61.665890499949455,,,,61.66136862500571,62.257554708980024,62.47660633397754,right,0.21358279197011143,None,demo,001,2025-02-03_14h23.25.595,contrast_sensitivity,2024.2.4,None,2025-02-03 14h23.30.336431 -0500
0.001,-1,1,72,2,1,left,0.34542116697411984,None,1,2,72,10,62.48378399992362,,,,62.478872834006324,63.074694333947264,63.42573220899794,left,0.34542116697411984,None,demo,001,2025-02-03_14h23.25.595,contrast_sensitivity,2024.2.4,None,2025-02-03 14h23.30.336431 -0500
1e-08,-1,4,73,3,1,left,0.45531012408901006,None,1,3,73,35,63.44058654201217,,,,63.42702783399727,64.02457666699775,64.49280312494375,left,0.45531012408901006,None,demo,001,2025-02-03_14h23.25.595,contrast_sensitivity,2024.2.4,None,2025-02-03 14h23.30.336431 -0500
0.001,1,16,74,4,1,right,0.15753950004000217,None,1,4,74,59,64.50130337500013,,,,64.49503524997272,65.09042354195844,65.25975433399435,right,0.15753950004000217,None,demo,001,2025-02-03_14h23.25.595,contrast_sensitivity,2024.2.4,None,2025-02-03 14h23.30.336431 -0500
0.01,1,1,75,5,1,right,0.3426694580120966,None,1,5,75,4,65.26812987495214,,,,65.26199933397584,65.85727445897646,66.21011516696308,right,0.3426694580120966,None,demo,001,2025-02-03_14h23.25.595,contrast_sensitivity,2024.2.4,None,2025-02-03 14h23.30.336431 -0500
1e-06,1,1,76,6,1,right,0.28419975005090237,None,1,6,76,1,66.22387237497605,,,,66.21169899997767,66.80871433392167,67.09687433,right,0.28419975005090237,None,demo,001,2025-02-03_14h23.25.595,contrast_sensitivity,2024.2.4,None,2025-02-03 14h23.30.336431 -0500
0.0001,1,1,77,7,1,right,0.4682977501070127,None,1,7,77,2,67.10698479192797,,,,67.09897508390713,67.69052445900161,68.16130824992433,right,0.4682977501070127,None,demo,001,2025-02-03_14h23.25.595,contrast_sensitivity,2024.2.4,None,2025-02-03 14h23.30.336431 -0500
1e-06,-1,8,78,8,1,left,0.27993749908637255,None,1,8,78,50,68.17311470897403,,,,68.16265962494072,68.75702270900365,69.04270158393774,left,0.27993749908637255,None,demo,001,2025-02-03_14h23.25.595,contrast_sensitivity,2024.2.4,None,2025-02-03 14h23.30.336431 -0500
0.001,1,4,79,9,1,left,0.31155870796646923,None,1,9,79,31,69.05035220901482,,,,69.04497366701253,69.64528866694309,69.96002949995454,left,0.31155870796646923,None,demo,001,2025-02-03_14h23.25.595,contrast_sensitivity,2024.2.4,None,2025-02-03 14h23.30.336431 -0500
0.01,-1,2,80,10,1,left,0.18649262399412692,None,1,10,80,25,69.9669415,,,,69.96218221,70.57428833,70.77752937492914,left,0.18649262399412692,None,demo,001,2025-02-03_14h23.25.595,contrast_sensitivity,2024.2.4,None,2025-02-03 14h23.30.336431 -0500
0.01,-1,1,81,11,1,left,0.37263404100667685,None,1,11,81,11,70.79068316693883,,,,70.780761,71.37414154200815,71.75961062,left,0.37263404100667685,None,demo,001,2025-02-03_14h23.25.595,contrast_sensitivity,2024.2.4,None,2025-02-03 14h23.30.336431 -0500
1e-08,1,1,82,12,1,left,0.1652930829441175,None,1,12,82,0,71.76763321,,,,71.76156937493943,72.35743283398915,72.52511066698935,left,0.1652930829441175,None,demo,001,2025-02-03_14h23.25.595,contrast_sensitivity,2024.2.4,None,2025-02-03 14h23.30.336431 -0500
1e-06,1,4,83,13,1,right,0.2690389580093324,None,1,13,83,29,72.52877504192293,,,,72.525788,73.12462841696106,73.39655854192097,right,0.2690389580093324,None,demo,001,2025-02-03_14h23.25.595,contrast_sensitivity,2024.2.4,None,2025-02-03 14h23.30.336431 -0500
0.01,1,16,84,14,1,left,0.2607894579414278,None,1,14,84,60,73.40712945896666,,,,73.3980375,74.00789133401122,74.27600241696928,left,0.2607894579414278,None,demo,001,2025-02-03_14h23.25.595,contrast_sensitivity,2024.2.4,None,2025-02-03 14h23.30.336431 -0500
0.1,1,1,85,15,1,right,0.086711124,None,1,15,85,5,74.28428566700313,,,,74.27788504201453,74.87396783393342,74.96365599997807,right,0.086711124,None,demo,001,2025-02-03_14h23.25.595,contrast_sensitivity,2024.2.4,None,2025-02-03 14h23.30.336431 -0500
0.01,-1,16,86,16,1,right,0.329035708,None,1,16,86,67,74.97365741699468,,,,74.96583604195621,75.56162037490867,75.89308541698847,right,0.329035708,None,demo,001,2025-02-03_14h23.25.595,contrast_sensitivity,2024.2.4,None,2025-02-03 14h23.30.336431 -0500
0.01,-1,4,87,17,1,left,0.2159087499603629,None,1,17,87,39,75.90048912493512,,,,75.89530787500553,76.48970970895607,76.70773779193405,left,0.2159087499603629,None,demo,001,2025-02-03_14h23.25.595,contrast_sensitivity,2024.2.4,None,2025-02-03 14h23.30.336431 -0500
1e-06,-1,2,88,18,1,left,0.16437695804052055,None,1,18,88,22,76.71331495896447,,,,76.70936658396386,77.29525500000454,77.47662545891944,left,0.16437695804052055,None,demo,001,2025-02-03_14h23.25.595,contrast_sensitivity,2024.2.4,None,2025-02-03 14h23.30.336431 -0500
1,-1,4,89,19,1,left,0.31040075002238154,None,1,19,89,41,77.49055629200302,,,,77.47889816691168,78.07429687,78.39319316693582,left,0.31040075002238154,None,demo,001,2025-02-03_14h23.25.595,contrast_sensitivity,2024.2.4,None,2025-02-03 14h23.30.336431 -0500
1,1,16,90,20,1,right,0.12607108301017433,None,1,20,90,62,78.40175096,,,,78.39526299992576,78.99060645897407,79.12607462494634,right,0.12607108301017433,None,demo,001,2025-02-03_14h23.25.595,contrast_sensitivity,2024.2.4,None,2025-02-03 14h23.30.336431 -0500
1e-08,1,8,91,21,1,left,0.7115343749755993,None,1,21,91,42,79.13268433394842,,,,79.12798754195683,79.72402320895344,80.44257249997463,left,0.7115343749755993,None,demo,001,2025-02-03_14h23.25.595,contrast_sensitivity,2024.2.4,None,2025-02-03 14h23.30.336431 -0500
1,1,1,92,22,1,right,0.2588787080021575,None,1,22,92,6,80.44994974997826,,,,80.44493516697548,81.04065712494776,81.31028166692704,right,0.2588787080021575,None,demo,001,2025-02-03_14h23.25.595,contrast_sensitivity,2024.2.4,None,2025-02-03 14h23.30.336431 -0500
1e-08,-1,2,93,23,1,left,0.7914879580494016,None,1,23,93,21,81.31919375,,,,81.31249849998858,81.90701504191384,82.70908520894591,left,0.7914879580494016,None,demo,001,2025-02-03_14h23.25.595,contrast_sensitivity,2024.2.4,None,2025-02-03 14h23.30.336431 -0500
0.0001,-1,4,94,24,1,left,0.2702470829244703,None,1,24,94,37,82.71812566695735,,,,82.71136520896107,83.30718095891643,83.59225662,left,0.2702470829244703,None,demo,001,2025-02-03_14h23.25.595,contrast_sensitivity,2024.2.4,None,2025-02-03 14h23.30.336431 -0500
1e-08,1,16,95,25,1,left,0.26173029199708253,None,1,25,95,56,83.60709554201458,,,,83.59343233401887,84.18968891701661,84.45892108394764,left,0.26173029199708253,None,demo,001,2025-02-03_14h23.25.595,contrast_sensitivity,2024.2.4,None,2025-02-03 14h23.30.336431 -0500
0.1,-1,4,96,26,1,left,0.15101508295629174,None,1,26,96,40,84.46492912492249,,,,84.46072262490634,85.05640337,85.21375333401375,left,0.15101508295629174,None,demo,001,2025-02-03_14h23.25.595,contrast_sensitivity,2024.2.4,None,2025-02-03 14h23.30.336431 -0500
1e-08,1,2,97,27,1,left,0.17032662499696016,None,1,27,97,14,85.22333079192322,,,,85.21590795891825,85.80706187500618,85.99330217,left,0.17032662499696016,None,demo,001,2025-02-03_14h23.25.595,contrast_sensitivity,2024.2.4,None,2025-02-03 14h23.30.336431 -0500
1e-08,-1,1,98,28,1,left,0.12674708291888237,None,1,28,98,7,86.00754045892972,,,,85.99571504199412,86.59079420892522,86.72579929197673,left,0.12674708291888237,None,demo,001,2025-02-03_14h23.25.595,contrast_sensitivity,2024.2.4,None,2025-02-03 14h23.30.336431 -0500
0.0001,-1,2,99,29,1,left,0.35821362503338605,None,1,29,99,23,86.73472154,,,,86.72811620892026,87.32439237495419,87.69335008400958,left,0.35821362503338605,None,demo,001,2025-02-03_14h23.25.595,contrast_sensitivity,2024.2.4,None,2025-02-03 14h23.30.336431 -0500
0.1,-1,16,100,30,1,left,0.14391141606029123,None,1,30,100,68,87.70758295897394,,,,87.69552054197993,88.29059758398216,88.44290262495633,left,0.14391141606029123,None,demo,001,2025-02-03_14h23.25.595,contrast_sensitivity,2024.2.4,None,2025-02-03 14h23.30.336431 -0500
1,1,4,101,31,1,right,0.157890958,None,1,31,101,34,88.45155220897868,,,,88.44489470892586,89.04062512493692,89.20848958392162,right,0.157890958,None,demo,001,2025-02-03_14h23.25.595,contrast_sensitivity,2024.2.4,None,2025-02-03 14h23.30.336431 -0500
1e-08,1,4,102,32,1,right,0.9526387909427285,None,1,32,102,28,89.21449179190677,,,,89.20989862491842,89.80726099992171,90.76384895900264,right,0.9526387909427285,None,demo,001,2025-02-03_14h23.25.595,contrast_sensitivity,2024.2.4,None,2025-02-03 14h23.30.336431 -0500
1,-1,1,103,33,1,left,0.318791083,None,1,33,103,13,90.77366595901549,,,,90.76631116692442,91.36147137498483,91.69264149991795,left,0.318791083,None,demo,001,2025-02-03_14h23.25.595,contrast_sensitivity,2024.2.4,None,2025-02-03 14h23.30.336431 -0500
0.0001,1,16,104,34,1,right,0.5696892499690875,None,1,34,104,58,91.70163116697222,,,,91.69441012491006,92.28954791696742,92.86082104197703,right,0.5696892499690875,None,demo,001,2025-02-03_14h23.25.595,contrast_sensitivity,2024.2.4,None,2025-02-03 14h23.30.336431 -0500
1e-08,-1,16,105,35,1,left,0.3317082079593092,None,1,35,105,63,92.87299566692673,,,,92.86221974994987,93.45751966699027,93.79230433399789,left,0.3317082079593092,None,demo,001,2025-02-03_14h23.25.595,contrast_sensitivity,2024.2.4,None,2025-02-03 14h23.30.336431 -0500
0.0001,1,4,106,36,1,right,0.40784399991389364,None,1,36,106,30,93.80090141692199,,,,93.79437817,94.3913295,94.80888895899989,right,0.40784399991389364,None,demo,001,2025-02-03_14h23.25.595,contrast_sensitivity,2024.2.4,None,2025-02-03 14h23.30.336431 -0500
0.1,-1,8,107,37,1,left,0.21536362392362207,None,1,37,107,54,94.81441437499598,,,,94.81005966698285,95.40783574990928,95.62757799995597,left,0.21536362392362207,None,demo,001,2025-02-03_14h23.25.595,contrast_sensitivity,2024.2.4,None,2025-02-03 14h23.30.336431 -0500
0.0001,1,8,108,38,1,left,0.21292083302978426,None,1,38,108,44,95.64046295895241,,,,95.62884025,96.22623963,96.44137591694016,left,0.21292083302978426,None,demo,001,2025-02-03_14h23.25.595,contrast_sensitivity,2024.2.4,None,2025-02-03 14h23.30.336431 -0500
0.1,1,8,109,39,1,right,0.12701141694560647,None,1,39,109,47,96.44656012498308,,,,96.44289095897693,97.04116766701918,97.17612174991518,right,0.12701141694560647,None,demo,001,2025-02-03_14h23.25.595,contrast_sensitivity,2024.2.4,None,2025-02-03 14h23.30.336431 -0500
1e-06,-1,4,110,40,1,left,1.7880384169984609,None,1,40,110,36,97.19080500002019,,,,97.17797408392653,97.79102433391381,99.59275316691492,left,1.7880384169984609,None,demo,001,2025-02-03_14h23.25.595,contrast_sensitivity,2024.2.4,None,2025-02-03 14h23.30.336431 -0500
0.1,1,4,111,41,1,right,0.28855812491383404,None,1,41,111,33,99.60759854200296,,,,99.59474262502044,100.19146424997598,100.49086008395534,right,0.28855812491383404,None,demo,001,2025-02-03_14h23.25.595,contrast_sensitivity,2024.2.4,None,2025-02-03 14h23.30.336431 -0500
1e-06,1,8,112,42,1,left,0.3623124579899013,None,1,42,112,43,100.4970340419095,,,,100.49220758397132,101.0896976669319,101.45917116699275,left,0.3623124579899013,None,demo,001,2025-02-03_14h23.25.595,contrast_sensitivity,2024.2.4,None,2025-02-03 14h23.30.336431 -0500
1e-06,-1,1,113,43,1,left,0.3840865830425173,None,1,43,113,8,101.46539937495254,,,,101.4607193749398,102.05698195891455,102.44680137501564,left,0.3840865830425173,None,demo,001,2025-02-03_14h23.25.595,contrast_sensitivity,2024.2.4,None,2025-02-03 14h23.30.336431 -0500
1,-1,8,114,44,1,left,0.27666249906178564,None,1,44,114,55,102.45685537497047,,,,102.44892508396879,103.04535595898051,103.32578020892106,left,0.27666249906178564,None,demo,001,2025-02-03_14h23.25.595,contrast_sensitivity,2024.2.4,None,2025-02-03 14h23.30.336431 -0500
0.01,1,8,115,45,1,right,0.22102141694631428,None,1,45,115,46,103.33359787496738,,,,103.32794474996626,103.92697024997324,104.16002533398569,right,0.22102141694631428,None,demo,001,2025-02-03_14h23.25.595,contrast_sensitivity,2024.2.4,None,2025-02-03 14h23.30.336431 -0500
1e-08,-1,8,116,46,1,right,0.4965370410354808,None,1,46,116,49,104.1689636670053,,,,104.16233074991032,104.75742366700433,105.25998079194687,right,0.4965370410354808,None,demo,001,2025-02-03_14h23.25.595,contrast_sensitivity,2024.2.4,None,2025-02-03 14h23.30.336431 -0500
0.1,1,2,117,47,1,right,0.1291437919717282,None,1,47,117,19,105.26812699995935,,,,105.26203508395702,105.85773962491658,105.99198112497106,right,0.1291437919717282,None,demo,001,2025-02-03_14h23.25.595,contrast_sensitivity,2024.2.4,None,2025-02-03 14h23.30.336431 -0500
0.0001,-1,1,118,48,1,left,0.3170161669841036,None,1,48,118,9,105.9974170839414,,,,105.99324004200753,106.59083704196382,106.91379129199777,left,0.3170161669841036,None,demo,001,2025-02-03_14h23.25.595,contrast_sensitivity,2024.2.4,None,2025-02-03 14h23.30.336431 -0500
1e-06,-1,16,119,49,1,left,0.47710379189811647,None,1,49,119,64,106.92370312497951,,,,106.91593033401296,107.5117901249323,107.99317183392122,left,0.47710379189811647,None,demo,001,2025-02-03_14h23.25.595,contrast_sensitivity,2024.2.4,None,2025-02-03 14h23.30.336431 -0500
0.01,1,4,120,50,1,right,0.25214258302003145,None,1,50,120,32,108.00166545901448,,,,107.99505762499757,108.5896851,108.8440979589941,right,0.25214258302003145,None,demo,001,2025-02-03_14h23.25.595,contrast_sensitivity,2024.2.4,None,2025-02-03 14h23.30.336431 -0500
0.0001,-1,8,121,51,1,left,0.28998787503223866,None,1,51,121,51,108.8562658339506,,,,108.84545091690961,109.44064962491393,109.74259554198943,left,0.28998787503223866,None,demo,001,2025-02-03_14h23.25.595,contrast_sensitivity,2024.2.4,None,2025-02-03 14h23.30.336431 -0500
0.1,-1,1,122,52,1,left,0.31228650000412017,None,1,52,122,12,109.75118199991994,,,,109.74485112493858,110.34070145897567,110.65854299999774,left,0.31228650000412017,None,demo,001,2025-02-03_14h23.25.595,contrast_sensitivity,2024.2.4,None,2025-02-03 14h23.30.336431 -0500
0.001,1,2,123,53,1,right,0.5393702080473304,None,1,53,123,17,110.66599279199727,,,,110.66046091692988,111.25736924994271,111.80905066698324,right,0.5393702080473304,None,demo,001,2025-02-03_14h23.25.595,contrast_sensitivity,2024.2.4,None,2025-02-03 14h23.30.336431 -0500
1,-1,16,124,54,1,left,0.24816374899819493,None,1,54,124,69,111.81806912494358,,,,111.81123150000349,112.40761166694574,112.66049620893318,left,0.24816374899819493,None,demo,001,2025-02-03_14h23.25.595,contrast_sensitivity,2024.2.4,None,2025-02-03 14h23.30.336431 -0500
0.001,-1,8,125,55,1,left,0.30904024897608906,None,1,55,125,52,112.66864049993455,,,,112.6624967919197,113.25777529191691,113.57658804196399,left,0.30904024897608906,None,demo,001,2025-02-03_14h23.25.595,contrast_sensitivity,2024.2.4,None,2025-02-03 14h23.30.336431 -0500
0.0001,1,2,126,56,1,right,0.2475951659725979,None,1,56,126,16,113.58430845895782,,,,113.57894762500655,114.17412945895921,114.42834420897998,right,0.2475951659725979,None,demo,001,2025-02-03_14h23.25.595,contrast_sensitivity,2024.2.4,None,2025-02-03 14h23.30.336431 -0500
0.01,-1,8,127,57,1,left,0.1887872910592705,None,1,57,127,53,114.44056162494235,,,,114.42980579193681,115.04091204190627,115.24252204201184,left,0.1887872910592705,None,demo,001,2025-02-03_14h23.25.595,contrast_sensitivity,2024.2.4,None,2025-02-03 14h23.30.336431 -0500
0.001,-1,16,128,58,1,left,0.35011179104913026,None,1,58,128,66,115.25142649991903,,,,115.24476195895113,115.84053887496702,116.19650808395818,left,0.35011179104913026,None,demo,001,2025-02-03_14h23.25.595,contrast_sensitivity,2024.2.4,None,2025-02-03 14h23.30.336431 -0500
1e-06,1,16,129,59,1,left,0.9953755830647424,None,1,59,129,57,116.20691720896866,,,,116.1988994589774,116.7932649999857,117.79230649990495,left,0.9953755830647424,None,demo,001,2025-02-03_14h23.25.595,contrast_sensitivity,2024.2.4,None,2025-02-03 14h23.30.336431 -0500
0.001,-1,2,130,60,1,left,0.36396024900022894,None,1,60,130,24,117.8000733340159,,,,117.79417541692965,118.3908049169695,118.75961766694672,left,0.36396024900022894,None,demo,001,2025-02-03_14h23.25.595,contrast_sensitivity,2024.2.4,None,2025-02-03 14h23.30.336431 -0500
1,1,8,131,61,1,right,0.097426916,None,1,61,131,48,118.76807004201692,,,,118.7621799169574,119.35720141697675,119.45957987499423,right,0.097426916,None,demo,001,2025-02-03_14h23.25.595,contrast_sensitivity,2024.2.4,None,2025-02-03 14h23.30.336431 -0500
0.001,-1,4,132,62,1,left,0.1849862498929724,None,1,62,132,38,119.46615845896304,,,,119.46184112492483,120.05756445892621,120.24686441698577,left,0.1849862498929724,None,demo,001,2025-02-03_14h23.25.595,contrast_sensitivity,2024.2.4,None,2025-02-03 14h23.30.336431 -0500
1e-06,1,2,133,63,1,left,0.2119746239623055,None,1,63,133,15,120.2569179169368,,,,120.24921583395917,120.84558533399832,121.0602583339205,left,0.2119746239623055,None,demo,001,2025-02-03_14h23.25.595,contrast_sensitivity,2024.2.4,None,2025-02-03 14h23.30.336431 -0500
0.1,1,16,134,64,1,right,0.077550583,None,1,64,134,61,121.06866591691505,,,,121.06203745899256,121.65707166690845,121.74371349997818,right,0.077550583,None,demo,001,2025-02-03_14h23.25.595,contrast_sensitivity,2024.2.4,None,2025-02-03 14h23.30.336431 -0500
1,-1,2,135,65,1,left,0.1688810420455411,None,1,65,135,27,121.75719566701446,,,,121.74607587500941,122.34064308390953,122.5128936,left,0.1688810420455411,None,demo,001,2025-02-03_14h23.25.595,contrast_sensitivity,2024.2.4,None,2025-02-03 14h23.30.336431 -0500
0.1,-1,2,136,66,1,left,0.10076424898579717,None,1,66,136,26,122.52359837491531,,,,122.51520004193299,123.11280133400578,123.22628404200077,left,0.10076424898579717,None,demo,001,2025-02-03_14h23.25.595,contrast_sensitivity,2024.2.4,None,2025-02-03 14h23.30.336431 -0500
0.01,1,2,137,67,1,left,0.4790140410186723,None,1,67,137,18,123.23407324997243,,,,123.22857758391183,123.82366470899433,124.30956841690931,left,0.4790140410186723,None,demo,001,2025-02-03_14h23.25.595,contrast_sensitivity,2024.2.4,None,2025-02-03 14h23.30.336431 -0500
0.001,1,8,138,68,1,right,0.075098917,None,1,68,138,45,124.31747137499042,,,,124.31198079197202,124.90635129192378,124.99104912497569,right,0.075098917,None,demo,001,2025-02-03_14h23.25.595,contrast_sensitivity,2024.2.4,None,2025-02-03 14h23.30.336431 -0500
0.001,1,1,139,69,1,right,0.8915917910635471,None,1,69,139,3,124.99773237493355,,,,124.99305816693231,125.58981549995951,126.49259149993304,right,0.8915917910635471,None,demo,001,2025-02-03_14h23.25.595,contrast_sensitivity,2024.2.4,None,2025-02-03 14h23.30.336431 -0500
1,1,8,140,0,2,right,0.2834924579365179,None,2,0,140,48,126.50171979190782,,,,126.4948852090165,127.09086470899638,127.37979699997231,right,0.2834924579365179,None,demo,001,2025-02-03_14h23.25.595,contrast_sensitivity,2024.2.4,None,2025-02-03 14h23.30.336431 -0500
0.1,1,2,141,1,2,right,0.17045595799572766,None,2,1,141,19,127.39029991696589,,,,127.38209983392153,127.97795787500218,128.1593047089409,right,0.17045595799572766,None,demo,001,2025-02-03_14h23.25.595,contrast_sensitivity,2024.2.4,None,2025-02-03 14h23.30.336431 -0500
0.0001,-1,1,142,2,2,left,0.2733666669810191,None,2,2,142,9,128.17454266699497,,,,128.16143304191064,128.77496904192958,129.05981449992396,left,0.2733666669810191,None,demo,001,2025-02-03_14h23.25.595,contrast_sensitivity,2024.2.4,None,2025-02-03 14h23.30.336431 -0500
0.0001,-1,2,143,3,2,left,0.11249379196669906,None,2,3,143,23,129.07381574995816,,,,129.06217341695447,129.67492720892187,129.79647874995135,left,0.11249379196669906,None,demo,001,2025-02-03_14h23.25.595,contrast_sensitivity,2024.2.4,None,2025-02-03 14h23.30.336431 -0500
1e-06,1,4,144,4,2,left,0.36332408303860575,None,2,4,144,29,129.80724100000225,,,,129.7985891669523,130.39401091693435,130.75977200001944,left,0.36332408303860575,None,demo,001,2025-02-03_14h23.25.595,contrast_sensitivity,2024.2.4,None,2025-02-03 14h23.30.336431 -0500
0.001,-1,4,145,5,2,left,0.25704341602977365,None,2,5,145,38,130.7738749999553,,,,130.7619595839642,131.37431979191024,131.64216754201334,left,0.25704341602977365,None,demo,001,2025-02-03_14h23.25.595,contrast_sensitivity,2024.2.4,None,2025-02-03 14h23.30.336431 -0500
1e-08,-1,4,146,6,2,left,0.4084379990817979,None,2,6,146,35,131.6505952499574,,,,131.64403124991804,132.24081899994053,132.65982574992813,left,0.4084379990817979,None,demo,001,2025-02-03_14h23.25.595,contrast_sensitivity,2024.2.4,None,2025-02-03 14h23.30.336431 -0500
0.01,1,4,147,7,2,right,0.522986249,None,2,7,147,32,132.67425554199144,,,,132.6618847089121,133.25627666700166,133.79131441691425,right,0.522986249,None,demo,001,2025-02-03_14h23.25.595,contrast_sensitivity,2024.2.4,None,2025-02-03 14h23.30.336431 -0500
0.001,1,2,148,8,2,right,0.28803504107054323,None,2,8,148,17,133.79688554198947,,,,133.7928352089366,134.37819774996024,134.67629766697064,right,0.28803504107054323,None,demo,001,2025-02-03_14h23.25.595,contrast_sensitivity,2024.2.4,None,2025-02-03 14h23.30.336431 -0500
1e-08,1,4,149,9,2,left,0.9478985409950837,None,2,9,149,28,134.6839447,,,,134.6785351249855,135.27429220895283,136.22676033398602,left,0.9478985409950837,None,demo,001,2025-02-03_14h23.25.595,contrast_sensitivity,2024.2.4,None,2025-02-03 14h23.30.336431 -0500
0.01,1,8,150,10,2,right,0.4820397909497842,None,2,10,150,46,136.24014312494546,,,,136.22838770900853,136.82412620901596,137.30983641697094,right,0.4820397909497842,None,demo,001,2025-02-03_14h23.25.595,contrast_sensitivity,2024.2.4,None,2025-02-03 14h23.30.336431 -0500
0.01,1,2,151,11,2,left,0.380905625,None,2,11,151,18,137.31749995891005,,,,137.3118544999743,137.9063886249205,138.29343245900236,left,0.380905625,None,demo,001,2025-02-03_14h23.25.595,contrast_sensitivity,2024.2.4,None,2025-02-03 14h23.30.336431 -0500
1,-1,16,152,12,2,left,0.2165367080597207,None,2,12,152,69,138.30733895895537,,,,138.2955649169162,138.89057962491643,139.11003124993294,left,0.2165367080597207,None,demo,001,2025-02-03_14h23.25.595,contrast_sensitivity,2024.2.4,None,2025-02-03 14h23.30.336431 -0500
1e-08,-1,2,153,13,2,left,0.11143345793243498,None,2,13,153,21,139.1183548339177,,,,139.1125355840195,139.70782291691285,139.8268898340175,left,0.11143345793243498,None,demo,001,2025-02-03_14h23.25.595,contrast_sensitivity,2024.2.4,None,2025-02-03 14h23.30.336431 -0500
0.01,-1,4,154,14,2,left,0.27103970805183053,None,2,14,154,39,139.84058366692625,,,,139.82887004199438,140.42404766695108,140.7079606669722,left,0.27103970805183053,None,demo,001,2025-02-03_14h23.25.595,contrast_sensitivity,2024.2.4,None,2025-02-03 14h23.30.336431 -0500
1e-06,-1,8,155,15,2,left,0.15775433310773224,None,2,15,155,50,140.71349454193842,,,,140.70906758401543,141.3062932919711,141.4748103339225,left,0.15775433310773224,None,demo,001,2025-02-03_14h23.25.595,contrast_sensitivity,2024.2.4,None,2025-02-03 14h23.30.336431 -0500
0.0001,1,1,156,16,2,left,0.5002023749984801,None,2,16,156,2,141.4803586669732,,,,141.47632245894056,142.07383162493352,142.57598112500273,left,0.5002023749984801,None,demo,001,2025-02-03_14h23.25.595,contrast_sensitivity,2024.2.4,None,2025-02-03 14h23.30.336431 -0500
0.001,1,8,157,17,2,right,0.43699445796664804,None,2,17,157,45,142.5841014169855,,,,142.57816529192496,143.17400433390867,143.61311104195192,right,0.43699445796664804,None,demo,001,2025-02-03_14h23.25.595,contrast_sensitivity,2024.2.4,None,2025-02-03 14h23.30.336431 -0500
0.01,-1,16,158,18,2,left,0.5780722920317203,None,2,18,158,67,143.62364845897537,,,,143.61547629197594,144.21197029191535,144.7935087919468,left,0.5780722920317203,None,demo,001,2025-02-03_14h23.25.595,contrast_sensitivity,2024.2.4,None,2025-02-03 14h23.30.336431 -0500
0.01,-1,2,159,19,2,left,0.10234495799522847,None,2,19,159,25,144.80082433391362,,,,144.79590849997476,145.39063437492587,145.49638579192106,left,0.10234495799522847,None,demo,001,2025-02-03_14h23.25.595,contrast_sensitivity,2024.2.4,None,2025-02-03 14h23.30.336431 -0500
0.1,1,1,160,20,2,right,0.9185301669640467,None,2,20,160,5,145.50694070896134,,,,145.4984103339957,146.0986117089633,147.02653870894574,right,0.9185301669640467,None,demo,001,2025-02-03_14h23.25.595,contrast_sensitivity,2024.2.4,None,2025-02-03 14h23.30.336431 -0500
0.001,1,1,161,21,2,right,0.369974208,None,2,21,161,3,147.0347762919264,,,,147.02869866695255,147.62390116695315,148.00814862491097,right,0.369974208,None,demo,001,2025-02-03_14h23.25.595,contrast_sensitivity,2024.2.4,None,2025-02-03 14h23.30.336431 -0500
1e-08,1,1,162,22,2,right,0.760331541,None,2,22,162,0,148.01393920893315,,,,148.00933908391744,148.59556204196997,149.35881620901637,right,0.760331541,None,demo,001,2025-02-03_14h23.25.595,contrast_sensitivity,2024.2.4,None,2025-02-03 14h23.30.336431 -0500
0.1,-1,2,163,23,2,left,0.35761662502773106,None,2,23,163,26,149.3652795839589,,,,149.36077024997212,149.95627245900687,150.3269131249981,left,0.35761662502773106,None,demo,001,2025-02-03_14h23.25.595,contrast_sensitivity,2024.2.4,None,2025-02-03 14h23.30.336431 -0500
0.001,-1,1,164,24,2,left,0.3169111240422353,None,2,24,164,10,150.34084537497256,,,,150.3290819589747,150.9239021249814,151.25024829199538,left,0.3169111240422353,None,demo,001,2025-02-03_14h23.25.595,contrast_sensitivity,2024.2.4,None,2025-02-03 14h23.30.336431 -0500
0.0001,-1,16,165,25,2,right,0.3240565829910338,None,2,25,165,65,151.2573532499373,,,,151.25138691696338,151.8447680840036,152.1765558340121,right,0.3240565829910338,None,demo,001,2025-02-03_14h23.25.595,contrast_sensitivity,2024.2.4,None,2025-02-03 14h23.30.336431 -0500
0.1,-1,8,166,26,2,left,0.31290874909609556,None,2,26,166,54,152.1845645419089,,,,152.17861604201607,152.77396041702013,153.09231479198206,left,0.31290874909609556,None,demo,001,2025-02-03_14h23.25.595,contrast_sensitivity,2024.2.4,None,2025-02-03 14h23.30.336431 -0500
1,1,1,167,27,2,right,0.058003082987852395,None,2,27,167,6,153.0991157089593,,,,153.0946162500186,153.69075454201084,153.7591059,right,0.058003082987852395,None,demo,001,2025-02-03_14h23.25.595,contrast_sensitivity,2024.2.4,None,2025-02-03 14h23.30.336431 -0500
1e-06,-1,16,168,28,2,left,0.4762995830969885,None,2,28,168,64,153.76635737495963,,,,153.76145133399405,154.3745878339978,154.85993283393327,left,0.4762995830969885,None,demo,001,2025-02-03_14h23.25.595,contrast_sensitivity,2024.2.4,None,2025-02-03 14h23.30.336431 -0500
1e-08,1,16,169,29,2,left,0.4245054579805583,None,2,29,169,56,154.8681545839645,,,,154.86248945898842,155.45722274994478,155.89358216698747,left,0.4245054579805583,None,demo,001,2025-02-03_14h23.25.595,contrast_sensitivity,2024.2.4,None,2025-02-03 14h23.30.336431 -0500
0.01,1,16,170,30,2,left,0.42477612500078976,None,2,30,170,60,155.90126025001518,,,,155.8959077919135,156.49104583391454,156.92604016698897,left,0.42477612500078976,None,demo,001,2025-02-03_14h23.25.595,contrast_sensitivity,2024.2.4,None,2025-02-03 14h23.30.336431 -0500
1,-1,2,171,31,2,left,0.369635874,None,2,31,171,27,156.93477574991994,,,,156.9282214170089,157.52300199994352,157.9077003749553,left,0.369635874,None,demo,001,2025-02-03_14h23.25.595,contrast_sensitivity,2024.2.4,None,2025-02-03 14h23.30.336431 -0500
0.0001,1,4,172,32,2,right,0.3366961660794914,None,2,32,172,30,157.91288770898245,,,,157.90887587494217,158.49498862493783,158.84368149994407,right,0.3366961660794914,None,demo,001,2025-02-03_14h23.25.595,contrast_sensitivity,2024.2.4,None,2025-02-03 14h23.30.336431 -0500
1e-06,-1,4,173,33,2,left,0.39877437497489154,None,2,33,173,36,158.85712016699836,,,,158.84598595893476,159.44088716700207,159.8429830839159,left,0.39877437497489154,None,demo,001,2025-02-03_14h23.25.595,contrast_sensitivity,2024.2.4,None,2025-02-03 14h23.30.336431 -0500
1,-1,8,174,34,2,left,0.30383766698651016,None,2,34,174,55,159.85094633395784,,,,159.84529245900922,160.44072341697756,160.75954712496605,left,0.30383766698651016,None,demo,001,2025-02-03_14h23.25.595,contrast_sensitivity,2024.2.4,None,2025-02-03 14h23.30.336431 -0500
1,1,16,175,35,2,right,0.24950087489560246,None,2,35,175,62,160.76864333392587,,,,160.7617610419402,161.35711658396758,161.6097041249741,right,0.24950087489560246,None,demo,001,2025-02-03_14h23.25.595,contrast_sensitivity,2024.2.4,None,2025-02-03 14h23.30.336431 -0500
0.001,-1,16,176,36,2,left,0.4421125410590321,None,2,36,176,66,161.6177181,,,,161.61176312493626,162.20744824991561,162.65969420899637,left,0.4421125410590321,None,demo,001,2025-02-03_14h23.25.595,contrast_sensitivity,2024.2.4,None,2025-02-03 14h23.30.336431 -0500
1e-06,1,16,177,37,2,left,0.3190595420310274,None,2,37,177,57,162.66780166700482,,,,162.66199212498032,163.25746041699313,163.58030683395918,left,0.3190595420310274,None,demo,001,2025-02-03_14h23.25.595,contrast_sensitivity,2024.2.4,None,2025-02-03 14h23.30.336431 -0500
1e-08,1,2,178,38,2,left,0.4415202910313383,None,2,38,178,14,163.59030291694216,,,,163.58257037494332,164.17898258392233,164.62671191699337,left,0.4415202910313383,None,demo,001,2025-02-03_14h23.25.595,contrast_sensitivity,2024.2.4,None,2025-02-03 14h23.30.336431 -0500
1e-08,-1,8,179,39,2,left,0.46826883300673217,None,2,39,179,49,164.63502783398144,,,,164.62875295896083,165.22318383399397,165.69492674991488,left,0.46826883300673217,None,demo,001,2025-02-03_14h23.25.595,contrast_sensitivity,2024.2.4,None,2025-02-03 14h23.30.336431 -0500
1,1,2,180,40,2,right,0.34347812505438924,None,2,40,180,20,165.70622937497683,,,,165.69627391698305,166.28996704192832,166.64195437496528,right,0.34347812505438924,None,demo,001,2025-02-03_14h23.25.595,contrast_sensitivity,2024.2.4,None,2025-02-03 14h23.30.336431 -0500
1,1,4,181,41,2,right,0.44602095801383257,None,2,41,181,34,166.6486781669082,,,,166.64356854197104,167.2304059,167.68086729198694,right,0.44602095801383257,None,demo,001,2025-02-03_14h23.25.595,contrast_sensitivity,2024.2.4,None,2025-02-03 14h23.30.336431 -0500
1,-1,1,182,42,2,left,0.2617597500793636,None,2,42,182,13,167.69071929191705,,,,167.68199333397206,168.29161820898298,168.5592324589379,left,0.2617597500793636,None,demo,001,2025-02-03_14h23.25.595,contrast_sensitivity,2024.2.4,None,2025-02-03 14h23.30.336431 -0500
1e-06,-1,1,183,43,2,left,0.3499290000181645,None,2,43,183,8,168.5747374589555,,,,168.56101804191712,169.15745020890608,169.5097015419742,left,0.3499290000181645,None,demo,001,2025-02-03_14h23.25.595,contrast_sensitivity,2024.2.4,None,2025-02-03 14h23.30.336431 -0500
0.1,-1,4,184,44,2,left,0.2473079579649493,None,2,44,184,40,169.5238585,,,,169.51144441694487,170.10776566690765,170.35991245892365,left,0.2473079579649493,None,demo,001,2025-02-03_14h23.25.595,contrast_sensitivity,2024.2.4,None,2025-02-03 14h23.30.336431 -0500
0.0001,-1,8,185,45,2,left,0.15893287409562618,None,2,45,185,51,170.36965020897333,,,,170.36200466693845,170.9744383340003,171.14288229192607,left,0.15893287409562618,None,demo,001,2025-02-03_14h23.25.595,contrast_sensitivity,2024.2.4,None,2025-02-03 14h23.30.336431 -0500
1e-08,-1,16,186,46,2,left,0.3395858750445768,None,2,46,186,63,171.15745974995662,,,,171.1450321249431,171.74071024998557,172.09386491694022,left,0.3395858750445768,None,demo,001,2025-02-03_14h23.25.595,contrast_sensitivity,2024.2.4,None,2025-02-03 14h23.30.336431 -0500
0.1,-1,16,187,47,2,left,0.25974883302114904,None,2,47,187,68,172.10719337500632,,,,172.09536979196128,172.6956022,172.95993791695219,left,0.25974883302114904,None,demo,001,2025-02-03_14h23.25.595,contrast_sensitivity,2024.2.4,None,2025-02-03 14h23.30.336431 -0500
0.001,1,4,188,48,2,left,0.24196691601537168,None,2,48,188,31,172.9688496249728,,,,172.9622577499831,173.55628999997862,173.80913841701113,left,0.24196691601537168,None,demo,001,2025-02-03_14h23.25.595,contrast_sensitivity,2024.2.4,None,2025-02-03 14h23.30.336431 -0500
0.01,-1,1,189,49,2,left,0.38703691703267395,None,2,49,189,11,173.8160845839884,,,,173.8112839589594,174.40720812499058,174.79739795892965,left,0.38703691703267395,None,demo,001,2025-02-03_14h23.25.595,contrast_sensitivity,2024.2.4,None,2025-02-03 14h23.30.336431 -0500
1e-06,1,1,190,50,2,left,0.2079551659990102,None,2,50,190,1,174.80612999992445,,,,174.79956341697834,175.3983946669614,175.60990158398636,left,0.2079551659990102,None,demo,001,2025-02-03_14h23.25.595,contrast_sensitivity,2024.2.4,None,2025-02-03 14h23.30.336431 -0500
1,-1,4,191,51,2,left,0.1557120829820633,None,2,51,191,41,175.6187996249646,,,,175.61203191697132,176.2126792089548,176.37622937501874,left,0.1557120829820633,None,demo,001,2025-02-03_14h23.25.595,contrast_sensitivity,2024.2.4,None,2025-02-03 14h23.30.336431 -0500
0.0001,1,2,192,52,2,left,0.35955179191660136,None,2,52,192,16,176.38490729196928,,,,176.37826999998651,176.97380729194265,177.3431267499691,left,0.35955179191660136,None,demo,001,2025-02-03_14h23.25.595,contrast_sensitivity,2024.2.4,None,2025-02-03 14h23.30.336431 -0500
0.1,-1,1,193,53,2,left,0.1565094159450382,None,2,53,193,12,177.35204554197844,,,,177.34530608390924,177.9406444169581,178.11005620891228,left,0.1565094159450382,None,demo,001,2025-02-03_14h23.25.595,contrast_sensitivity,2024.2.4,None,2025-02-03 14h23.30.336431 -0500
0.0001,-1,4,194,54,2,left,0.22468116600066423,None,2,54,194,37,178.12379658396821,,,,178.1124323749682,178.70749454200268,178.94330795900896,left,0.22468116600066423,None,demo,001,2025-02-03_14h23.25.595,contrast_sensitivity,2024.2.4,None,2025-02-03 14h23.30.336431 -0500
0.001,1,16,195,55,2,left,0.36618774896487594,None,2,55,195,59,178.9571675839834,,,,178.94573174999095,179.55792433395982,179.92708554200362,left,0.36618774896487594,None,demo,001,2025-02-03_14h23.25.595,contrast_sensitivity,2024.2.4,None,2025-02-03 14h23.30.336431 -0500
0.1,1,16,196,56,2,right,0.33338141697458923,None,2,56,196,61,179.94041799998377,,,,179.9292507499922,180.5247385839466,180.86333512491547,right,0.33338141697458923,None,demo,001,2025-02-03_14h23.25.595,contrast_sensitivity,2024.2.4,None,2025-02-03 14h23.30.336431 -0500
0.1,1,8,197,57,2,right,0.3619833749253303,None,2,57,197,47,180.8736401249189,,,,180.86554679193068,181.46009745891206,181.82515870896168,right,0.3619833749253303,None,demo,001,2025-02-03_14h23.25.595,contrast_sensitivity,2024.2.4,None,2025-02-03 14h23.30.336431 -0500
1e-06,1,2,198,58,2,left,0.4168427080148831,None,2,58,198,15,181.83100854197983,,,,181.8265919169644,182.42320737498812,182.84279816690832,left,0.4168427080148831,None,demo,001,2025-02-03_14h23.25.595,contrast_sensitivity,2024.2.4,None,2025-02-03 14h23.30.336431 -0500
0.01,-1,8,199,59,2,left,0.2772683330113068,None,2,59,199,53,182.85018149996176,,,,182.84511933394242,183.44088658399414,183.72588466701563,left,0.2772683330113068,None,demo,001,2025-02-03_14h23.25.595,contrast_sensitivity,2024.2.4,None,2025-02-03 14h23.30.336431 -0500
0.0001,1,8,200,60,2,right,0.43098720791749656,None,2,60,200,44,183.7348937089555,,,,183.72821474994998,184.32403420901392,184.76321154192556,right,0.43098720791749656,None,demo,001,2025-02-03_14h23.25.595,contrast_sensitivity,2024.2.4,None,2025-02-03 14h23.30.336431 -0500
0.001,-1,8,201,61,2,left,0.2311607910087332,None,2,61,201,52,184.77395895891823,,,,184.7653911249945,185.36196941696107,185.59633179195225,left,0.2311607910087332,None,demo,001,2025-02-03_14h23.25.595,contrast_sensitivity,2024.2.4,None,2025-02-03 14h23.30.336431 -0500
0.1,1,4,202,62,2,right,0.28901970805600286,None,2,62,202,33,185.6069672,,,,185.5986103,186.1949647089932,186.49238279194105,right,0.28901970805600286,None,demo,001,2025-02-03_14h23.25.595,contrast_sensitivity,2024.2.4,None,2025-02-03 14h23.30.336431 -0500
0.0001,1,16,203,63,2,right,0.20427949994336814,None,2,63,203,58,186.50106325000525,,,,186.49448783393018,187.09063779201824,187.30909708398394,right,0.20427949994336814,None,demo,001,2025-02-03_14h23.25.595,contrast_sensitivity,2024.2.4,None,2025-02-03 14h23.30.336431 -0500
1e-08,-1,1,204,64,2,left,0.42976241605356336,None,2,64,204,7,187.3178082499653,,,,187.31147708394565,187.90720708400477,188.3448322499171,left,0.42976241605356336,None,demo,001,2025-02-03_14h23.25.595,contrast_sensitivity,2024.2.4,None,2025-02-03 14h23.30.336431 -0500
0.01,1,1,205,65,2,right,0.5103937489911914,None,2,65,205,4,188.35705412493553,,,,188.34626133390702,188.9404918339569,189.45806237496436,right,0.5103937489911914,None,demo,001,2025-02-03_14h23.25.595,contrast_sensitivity,2024.2.4,None,2025-02-03 14h23.30.336431 -0500
1e-08,1,8,206,66,2,left,0.4085558739025146,None,2,66,206,42,189.46364112501033,,,,189.45964137499686,190.05632033396978,190.47485962498467,left,0.4085558739025146,None,demo,001,2025-02-03_14h23.25.595,contrast_sensitivity,2024.2.4,None,2025-02-03 14h23.30.336431 -0500
0.001,-1,2,207,67,2,left,0.26196391705889255,None,2,67,207,24,190.4819105839124,,,,190.47659904195461,191.06288129196037,191.3310467499541,left,0.26196391705889255,None,demo,001,2025-02-03_14h23.25.595,contrast_sensitivity,2024.2.4,None,2025-02-03 14h23.30.336431 -0500
1e-06,1,8,208,68,2,left,0.15532229095697403,None,2,68,208,43,191.33926375000738,,,,191.3333981669275,191.92957024998032,192.0931393749779,left,0.15532229095697403,None,demo,001,2025-02-03_14h23.25.595,contrast_sensitivity,2024.2.4,None,2025-02-03 14h23.30.336431 -0500
1e-06,-1,2,209,69,2,left,0.5962701250100508,None,2,69,209,22,192.1012812500121,,,,192.09518816694617,192.6905527500203,193.2932367499452,left,0.5962701250100508,None,demo,001,2025-02-03_14h23.25.595,contrast_sensitivity,2024.2.4,None,2025-02-03 14h23.30.336431 -0500
0.0001,-1,4,210,0,3,left,0.386705041,None,3,0,210,37,193.30310324998572,,,,193.29552554199472,193.89028045895975,194.28061899996828,left,0.386705041,None,demo,001,2025-02-03_14h23.25.595,contrast_sensitivity,2024.2.4,None,2025-02-03 14h23.30.336431 -0500
0.1,1,2,211,1,3,right,0.31824312498793006,None,3,1,211,19,194.2903104169527,,,,194.28281595895533,194.87953029200435,195.20954820897896,right,0.31824312498793006,None,demo,001,2025-02-03_14h23.25.595,contrast_sensitivity,2024.2.4,None,2025-02-03 14h23.30.336431 -0500
0.01,-1,8,212,2,3,right,0.28527012502308935,None,3,2,212,53,195.22479666699655,,,,195.21168758394197,195.8065131669864,196.09677724994253,right,0.28527012502308935,None,demo,001,2025-02-03_14h23.25.595,contrast_sensitivity,2024.2.4,None,2025-02-03 14h23.30.336431 -0500
0.01,-1,2,213,3,3,left,0.45125566597562283,None,3,3,213,25,196.1068764589727,,,,196.0989951,196.69043770898134,197.1467073749518,left,0.45125566597562283,None,demo,001,2025-02-03_14h23.25.595,contrast_sensitivity,2024.2.4,None,2025-02-03 14h23.30.336431 -0500
0.01,-1,16,214,4,3,left,0.389354458,None,3,4,214,67,197.1568683339283,,,,197.14881166699342,197.74331654200796,198.14199329190888,left,0.389354458,None,demo,001,2025-02-03_14h23.25.595,contrast_sensitivity,2024.2.4,None,2025-02-03 14h23.30.336431 -0500
0.001,1,16,215,5,3,right,0.5094985000323504,None,3,5,215,59,198.14735729200765,,,,198.14350295893382,198.74030462501105,199.25883420894388,right,0.5094985000323504,None,demo,001,2025-02-03_14h23.25.595,contrast_sensitivity,2024.2.4,None,2025-02-03 14h23.30.336431 -0500
1e-08,1,1,216,6,3,left,0.5123899170430377,None,3,6,216,0,199.26850491692312,,,,199.26088933390565,199.85724008397665,200.37593779200688,left,0.5123899170430377,None,demo,001,2025-02-03_14h23.25.595,contrast_sensitivity,2024.2.4,None,2025-02-03 14h23.30.336431 -0500
0.01,-1,4,217,7,3,left,0.34945124899968505,None,3,7,217,39,200.38287524995394,,,,200.3783050419297,200.9911311,201.34652887494303,left,0.34945124899968505,None,demo,001,2025-02-03_14h23.25.595,contrast_sensitivity,2024.2.4,None,2025-02-03 14h23.30.336431 -0500
0.001,-1,8,218,8,3,left,0.3586287080543116,None,3,8,218,52,201.35682695894502,,,,201.34885279193986,201.9451274590101,202.30896970897447,left,0.3586287080543116,None,demo,001,2025-02-03_14h23.25.595,contrast_sensitivity,2024.2.4,None,2025-02-03 14h23.30.336431 -0500
0.1,-1,2,219,9,3,left,0.4273987909546122,None,3,9,219,26,202.32371316698845,,,,202.31042774999514,202.90716699999757,203.34267508401535,left,0.4273987909546122,None,demo,001,2025-02-03_14h23.25.595,contrast_sensitivity,2024.2.4,None,2025-02-03 14h23.30.336431 -0500
1,1,4,220,10,3,right,0.470078417,None,3,10,220,34,203.34999212494586,,,,203.3447577089537,203.94048708397895,204.42627908394206,right,0.470078417,None,demo,001,2025-02-03_14h23.25.595,contrast_sensitivity,2024.2.4,None,2025-02-03 14h23.30.336431 -0500
1,1,1,221,11,3,right,0.480811792,None,3,11,221,6,204.440649,,,,204.42837395891547,205.02469379198737,205.50987520895433,right,0.480811792,None,demo,001,2025-02-03_14h23.25.595,contrast_sensitivity,2024.2.4,None,2025-02-03 14h23.30.336431 -0500
0.001,1,4,222,12,3,right,0.33420354104600847,None,3,12,222,31,205.51881008397322,,,,205.51214933395386,206.10625800001435,206.44447924999986,right,0.33420354104600847,None,demo,001,2025-02-03_14h23.25.595,contrast_sensitivity,2024.2.4,None,2025-02-03 14h23.30.336431 -0500
0.0001,-1,8,223,13,3,left,0.42199654097203165,None,3,13,223,51,206.45620675000828,,,,206.44577462493908,207.04048224992584,207.4762403749628,left,0.42199654097203165,None,demo,001,2025-02-03_14h23.25.595,contrast_sensitivity,2024.2.4,None,2025-02-03 14h23.30.336431 -0500
0.0001,1,4,224,14,3,left,0.3107090409612283,None,3,14,224,30,207.48476333392318,,,,207.47813854191918,208.0738290839363,208.39290262490977,left,0.3107090409612283,None,demo,001,2025-02-03_14h23.25.595,contrast_sensitivity,2024.2.4,None,2025-02-03 14h23.30.336431 -0500
0.001,-1,1,225,15,3,left,0.3658161249477416,None,3,15,225,10,208.40082966699265,,,,208.39513070893008,208.99064120894764,209.35935458401218,left,0.3658161249477416,None,demo,001,2025-02-03_14h23.25.595,contrast_sensitivity,2024.2.4,None,2025-02-03 14h23.30.336431 -0500
1e-08,1,8,226,16,3,left,0.3414337489521131,None,3,16,226,42,209.36608166701626,,,,209.36184412497096,209.9570730839623,210.30971379193943,left,0.3414337489521131,None,demo,001,2025-02-03_14h23.25.595,contrast_sensitivity,2024.2.4,None,2025-02-03 14h23.30.336431 -0500
0.01,1,1,227,17,3,left,0.44223225000314415,None,3,17,227,4,210.31843312492128,,,,210.31207254191395,210.90711270901375,211.35985012492165,left,0.44223225000314415,None,demo,001,2025-02-03_14h23.25.595,contrast_sensitivity,2024.2.4,None,2025-02-03 14h23.30.336431 -0500
1e-08,-1,4,228,18,3,left,0.4283638750202954,None,3,18,228,35,211.36751174996607,,,,211.36234220897313,211.97795758396387,212.40920033399016,left,0.4283638750202954,None,demo,001,2025-02-03_14h23.25.595,contrast_sensitivity,2024.2.4,None,2025-02-03 14h23.30.336431 -0500
1,1,2,229,19,3,right,0.3760389999952167,None,3,19,229,20,212.4237456669798,,,,212.41044829192106,213.00826704199426,213.39340129191987,right,0.3760389999952167,None,demo,001,2025-02-03_14h23.25.595,contrast_sensitivity,2024.2.4,None,2025-02-03 14h23.30.336431 -0500
0.01,1,8,230,20,3,right,0.32769345794804394,None,3,20,230,46,213.4070159170078,,,,213.3958188749384,213.98958487494383,214.32541233394295,right,0.32769345794804394,None,demo,001,2025-02-03_14h23.25.595,contrast_sensitivity,2024.2.4,None,2025-02-03 14h23.30.336431 -0500
0.001,1,2,231,21,3,right,0.35315120790619403,None,3,21,231,17,214.33167345891707,,,,214.32719891692977,214.92314237495884,215.2928526669275,right,0.35315120790619403,None,demo,001,2025-02-03_14h23.25.595,contrast_sensitivity,2024.2.4,None,2025-02-03 14h23.30.336431 -0500
0.1,1,16,232,22,3,right,0.1636739580426365,None,3,22,232,61,215.30767429200932,,,,215.29479370894842,215.90760420891456,216.07629841694143,right,0.1636739580426365,None,demo,001,2025-02-03_14h23.25.595,contrast_sensitivity,2024.2.4,None,2025-02-03 14h23.30.336431 -0500
1e-08,-1,1,233,23,3,left,0.455103375,None,3,23,233,7,216.08262724999804,,,,216.07799766701646,216.6740714169573,217.14317166700494,left,0.455103375,None,demo,001,2025-02-03_14h23.25.595,contrast_sensitivity,2024.2.4,None,2025-02-03 14h23.30.336431 -0500
1e-08,-1,2,234,24,3,left,0.37977887492161244,None,3,24,234,21,217.15193799999543,,,,217.14551449997816,217.7405625419924,218.12644754198845,left,0.37977887492161244,None,demo,001,2025-02-03_14h23.25.595,contrast_sensitivity,2024.2.4,None,2025-02-03 14h23.30.336431 -0500
1e-06,-1,16,235,25,3,right,0.3391453749500215,None,3,25,235,64,218.13552324997727,,,,218.12884716701228,218.74103362497408,219.08349362493027,right,0.3391453749500215,None,demo,001,2025-02-03_14h23.25.595,contrast_sensitivity,2024.2.4,None,2025-02-03 14h23.30.336431 -0500
0.0001,-1,1,236,26,3,left,0.42247645801398903,None,3,26,236,9,219.08937012497336,,,,219.08493149990682,219.6768064169446,220.10976658400614,left,0.42247645801398903,None,demo,001,2025-02-03_14h23.25.595,contrast_sensitivity,2024.2.4,None,2025-02-03 14h23.30.336431 -0500
0.1,1,8,237,27,3,right,0.13990654109511524,None,3,27,237,47,220.11787199997343,,,,220.11209337494802,220.70720454200637,220.85916324995924,right,0.13990654109511524,None,demo,001,2025-02-03_14h23.25.595,contrast_sensitivity,2024.2.4,None,2025-02-03 14h23.30.336431 -0500
1e-08,-1,8,238,28,3,right,0.2836319579510018,None,3,28,238,49,220.8672058749944,,,,220.86147899995558,221.47445037495345,221.77661270892713,right,0.2836319579510018,None,demo,001,2025-02-03_14h23.25.595,contrast_sensitivity,2024.2.4,None,2025-02-03 14h23.30.336431 -0500
0.0001,1,2,239,29,3,left,0.5589191239560023,None,3,29,239,16,221.79066991701256,,,,221.7785299589159,222.37312929192558,222.9419832089916,left,0.5589191239560023,None,demo,001,2025-02-03_14h23.25.595,contrast_sensitivity,2024.2.4,None,2025-02-03 14h23.30.336431 -0500
1e-06,-1,8,240,30,3,left,0.37923137401230633,None,3,30,240,50,222.94847995892633,,,,222.94385979196522,223.53982466692105,223.92557191697415,left,0.37923137401230633,None,demo,001,2025-02-03_14h23.25.595,contrast_sensitivity,2024.2.4,None,2025-02-03 14h23.30.336431 -0500
0.1,1,1,241,31,3,right,0.2842691659461707,None,3,31,241,5,223.93480474990793,,,,223.92760024999734,224.52379174996167,224.8156366669573,right,0.2842691659461707,None,demo,001,2025-02-03_14h23.25.595,contrast_sensitivity,2024.2.4,None,2025-02-03 14h23.30.336431 -0500
0.1,1,4,242,32,3,right,0.33850920805707574,None,3,32,242,33,224.82350345898885,,,,224.81684208393563,225.41162983397953,225.7597472500056,right,0.33850920805707574,None,demo,001,2025-02-03_14h23.25.595,contrast_sensitivity,2024.2.4,None,2025-02-03 14h23.30.336431 -0500
0.001,-1,2,243,33,3,left,0.44686641602311283,None,3,33,243,24,225.76851441699546,,,,225.76209612493403,226.35722195892595,226.80933516693767,left,0.44686641602311283,None,demo,001,2025-02-03_14h23.25.595,contrast_sensitivity,2024.2.4,None,2025-02-03 14h23.30.336431 -0500
1e-06,1,1,244,34,3,left,0.3818104160018265,None,3,34,244,1,226.81763154198416,,,,226.81157329201233,227.40714495896827,227.79282283398788,left,0.3818104160018265,None,demo,001,2025-02-03_14h23.25.595,contrast_sensitivity,2024.2.4,None,2025-02-03 14h23.30.336431 -0500
1e-06,1,8,245,35,3,left,0.21014262503013015,None,3,35,245,43,227.80177649995312,,,,227.7951491669519,228.3908592920052,228.60996625002008,left,0.21014262503013015,None,demo,001,2025-02-03_14h23.25.595,contrast_sensitivity,2024.2.4,None,2025-02-03 14h23.30.336431 -0500
0.001,1,1,246,36,3,right,0.4619691239204258,None,3,36,246,3,228.62367170897778,,,,228.6112991,229.20713654195424,229.67580937501043,right,0.4619691239204258,None,demo,001,2025-02-03_14h23.25.595,contrast_sensitivity,2024.2.4,None,2025-02-03 14h23.30.336431 -0500
0.0001,-1,16,247,37,3,left,0.6430699159391224,None,3,37,247,65,229.68484320899006,,,,229.67805466696154,230.27282408392057,230.92553974990733,left,0.6430699159391224,None,demo,001,2025-02-03_14h23.25.595,contrast_sensitivity,2024.2.4,None,2025-02-03 14h23.30.336431 -0500
1e-08,1,16,248,38,3,right,0.39492329105269164,None,3,38,248,56,230.93146270897705,,,,230.9272516,231.52408825000748,231.92626170895528,right,0.39492329105269164,None,demo,001,2025-02-03_14h23.25.595,contrast_sensitivity,2024.2.4,None,2025-02-03 14h23.30.336431 -0500
0.001,-1,4,249,39,3,left,0.40906537405680865,None,3,39,249,38,231.93369254190475,,,,231.92843587498646,232.52379925001878,232.9431140839588,left,0.40906537405680865,None,demo,001,2025-02-03_14h23.25.595,contrast_sensitivity,2024.2.4,None,2025-02-03 14h23.30.336431 -0500
0.001,1,8,250,40,3,left,0.34738216595724225,None,3,40,250,45,232.95132624998223,,,,232.94529416691512,233.54045158391818,233.8933077919064,left,0.34738216595724225,None,demo,001,2025-02-03_14h23.25.595,contrast_sensitivity,2024.2.4,None,2025-02-03 14h23.30.336431 -0500
0.1,-1,16,251,41,3,left,0.3333011670038104,None,3,41,251,68,233.90046220901422,,,,233.89545374992304,234.4904873339692,234.82651883398648,left,0.3333011670038104,None,demo,001,2025-02-03_14h23.25.595,contrast_sensitivity,2024.2.4,None,2025-02-03 14h23.30.336431 -0500
0.1,-1,1,252,42,3,left,0.2596054159803316,None,3,42,252,12,234.84044854191598,,,,234.82861049997155,235.4241403,235.69316058396362,left,0.2596054159803316,None,demo,001,2025-02-03_14h23.25.595,contrast_sensitivity,2024.2.4,None,2025-02-03 14h23.30.336431 -0500
1,1,16,253,43,3,right,0.21427287394180894,None,3,43,253,62,235.70201679191086,,,,235.6954066249309,236.2904874999076,236.50944891700055,right,0.21427287394180894,None,demo,001,2025-02-03_14h23.25.595,contrast_sensitivity,2024.2.4,None,2025-02-03 14h23.30.336431 -0500
0.1,-1,8,254,44,3,left,0.20657437504269183,None,3,44,254,54,236.52370091690682,,,,236.51170770893805,237.10717220895458,237.32669095892925,left,0.20657437504269183,None,demo,001,2025-02-03_14h23.25.595,contrast_sensitivity,2024.2.4,None,2025-02-03 14h23.30.336431 -0500
0.1,-1,4,255,45,3,left,0.33959074900485575,None,3,45,255,40,237.33479141700082,,,,237.32916937500704,237.92407149996143,238.27434033399913,left,0.33959074900485575,None,demo,001,2025-02-03_14h23.25.595,contrast_sensitivity,2024.2.4,None,2025-02-03 14h23.30.336431 -0500
0.0001,1,8,256,46,3,left,0.33914162509609014,None,3,46,256,44,238.2802993,,,,238.2756250000093,238.87287666695192,239.22428158391267,left,0.33914162509609014,None,demo,001,2025-02-03_14h23.25.595,contrast_sensitivity,2024.2.4,None,2025-02-03 14h23.30.336431 -0500
1e-08,1,4,257,47,3,right,0.20977158297318965,None,3,47,257,28,239.23160870897118,,,,239.22599316691048,239.8239220000105,240.04313137498684,right,0.20977158297318965,None,demo,001,2025-02-03_14h23.25.595,contrast_sensitivity,2024.2.4,None,2025-02-03 14h23.30.336431 -0500
1e-06,-1,2,258,48,3,right,0.25062270800117403,None,3,48,258,22,240.0511302499799,,,,240.0453196669696,240.66158758394886,240.9142973339185,right,0.25062270800117403,None,demo,001,2025-02-03_14h23.25.595,contrast_sensitivity,2024.2.4,None,2025-02-03 14h23.30.336431 -0500
1e-06,-1,4,259,49,3,left,0.1974520420189947,None,3,49,259,36,240.92269587493502,,,,240.91644954192452,241.52417674998287,241.72588491695933,left,0.1974520420189947,None,demo,001,2025-02-03_14h23.25.595,contrast_sensitivity,2024.2.4,None,2025-02-03 14h23.30.336431 -0500
0.0001,-1,2,260,50,3,left,0.33059195801615715,None,3,50,260,23,241.7343160000164,,,,241.72806079196744,242.32410887500737,242.65903458395042,left,0.33059195801615715,None,demo,001,2025-02-03_14h23.25.595,contrast_sensitivity,2024.2.4,None,2025-02-03 14h23.30.336431 -0500
1,-1,8,261,51,3,left,0.38151533296331763,None,3,51,261,55,242.6665689169895,,,,242.66123516694643,243.25708141701762,243.64315379201435,left,0.38151533296331763,None,demo,001,2025-02-03_14h23.25.595,contrast_sensitivity,2024.2.4,None,2025-02-03 14h23.30.336431 -0500
1e-06,1,2,262,52,3,left,0.3739613329526037,None,3,52,262,15,243.65120520896744,,,,243.64512041700073,244.24059166701045,244.62575000000652,left,0.3739613329526037,None,demo,001,2025-02-03_14h23.25.595,contrast_sensitivity,2024.2.4,None,2025-02-03 14h23.30.336431 -0500
0.01,1,2,263,53,3,right,0.3420064989477396,None,3,53,263,18,244.63542541698553,,,,244.62868741701823,245.22454245900735,245.57683712500148,right,0.3420064989477396,None,demo,001,2025-02-03_14h23.25.595,contrast_sensitivity,2024.2.4,None,2025-02-03 14h23.30.336431 -0500
0.001,-1,16,264,54,3,left,0.2084317080443725,None,3,54,264,66,245.59046737500466,,,,245.57888983399607,246.17406791693065,246.3911345419474,left,0.2084317080443725,None,demo,001,2025-02-03_14h23.25.595,contrast_sensitivity,2024.2.4,None,2025-02-03 14h23.30.336431 -0500
1,-1,2,265,55,3,left,0.27292629098519683,None,3,55,265,27,246.39620108401868,,,,246.39256616693456,246.9895569169894,247.2754653749289,left,0.27292629098519683,None,demo,001,2025-02-03_14h23.25.595,contrast_sensitivity,2024.2.4,None,2025-02-03 14h23.30.336431 -0500
0.01,-1,1,266,56,3,left,0.088868291,None,3,56,266,11,247.28163799992763,,,,247.27688295894768,247.87463495892007,247.97570091695525,left,0.088868291,None,demo,001,2025-02-03_14h23.25.595,contrast_sensitivity,2024.2.4,None,2025-02-03 14h23.30.336431 -0500
1,-1,1,267,57,3,left,0.089184166,None,3,57,267,13,247.98408295901027,,,,247.97808020899538,248.57424937491305,248.6757867919514,left,0.089184166,None,demo,001,2025-02-03_14h23.25.595,contrast_sensitivity,2024.2.4,None,2025-02-03 14h23.30.336431 -0500
1,-1,16,268,58,3,left,0.1573450000723824,None,3,58,268,69,248.68507708399557,,,,248.67754633398727,249.2741236250149,249.4435634999536,left,0.1573450000723824,None,demo,001,2025-02-03_14h23.25.595,contrast_sensitivity,2024.2.4,None,2025-02-03 14h23.30.336431 -0500
0.01,1,4,269,59,3,right,0.1714494579937309,None,3,59,269,32,249.45728591701481,,,,249.4456834589364,250.05800762493163,250.24303333391435,right,0.1714494579937309,None,demo,001,2025-02-03_14h23.25.595,contrast_sensitivity,2024.2.4,None,2025-02-03 14h23.30.336431 -0500
1e-06,1,16,270,60,3,left,0.31885254103690386,None,3,60,270,57,250.25733337493148,,,,250.24506845895667,250.84055479196832,251.16288958396763,left,0.31885254103690386,None,demo,001,2025-02-03_14h23.25.595,contrast_sensitivity,2024.2.4,None,2025-02-03 14h23.30.336431 -0500
1,-1,4,271,61,3,left,0.1416973330779001,None,3,61,271,41,251.1735098749632,,,,251.16450741700828,251.7617274170043,251.90940370899625,left,0.1416973330779001,None,demo,001,2025-02-03_14h23.25.595,contrast_sensitivity,2024.2.4,None,2025-02-03 14h23.30.336431 -0500
1e-08,1,2,272,62,3,left,0.10107362491544336,None,3,62,272,14,251.92370920896064,,,,251.91169854195323,252.52425933396444,252.64361816691235,left,0.10107362491544336,None,demo,001,2025-02-03_14h23.25.595,contrast_sensitivity,2024.2.4,None,2025-02-03 14h23.30.336431 -0500
1e-08,-1,16,273,63,3,left,0.5888940410222858,None,3,63,273,63,252.65716691699345,,,,252.64582737500314,253.24041224992834,253.8409854999045,left,0.5888940410222858,None,demo,001,2025-02-03_14h23.25.595,contrast_sensitivity,2024.2.4,None,2025-02-03 14h23.30.336431 -0500
0.01,1,16,274,64,3,right,0.41580970806535333,None,3,64,274,60,253.84693245892413,,,,253.84261783398688,254.4295419169357,254.85811787494458,right,0.41580970806535333,None,demo,001,2025-02-03_14h23.25.595,contrast_sensitivity,2024.2.4,None,2025-02-03 14h23.30.336431 -0500
0.0001,1,16,275,65,3,right,0.35211866605095565,None,3,65,275,58,254.8635073339101,,,,254.8596397920046,255.45619233394973,255.81286850001197,right,0.35211866605095565,None,demo,001,2025-02-03_14h23.25.595,contrast_sensitivity,2024.2.4,None,2025-02-03 14h23.30.336431 -0500
1e-06,1,4,276,66,3,right,0.7051945000421256,None,3,66,276,29,255.82248908397742,,,,255.81530045892578,256.41118175000884,257.12632012495305,right,0.7051945000421256,None,demo,001,2025-02-03_14h23.25.595,contrast_sensitivity,2024.2.4,None,2025-02-03 14h23.30.336431 -0500
1,1,8,277,67,3,right,0.27510870806872845,None,3,67,277,48,257.1347995,,,,257.12856679200195,257.7239182089688,258.0094899999676,right,0.27510870806872845,None,demo,001,2025-02-03_14h23.25.595,contrast_sensitivity,2024.2.4,None,2025-02-03 14h23.30.336431 -0500
1e-06,-1,1,278,68,3,right,0.5351066249422729,None,3,68,278,8,258.01842129195575,,,,258.0115596249234,258.6070842499612,259.1456185419811,right,0.5351066249422729,None,demo,001,2025-02-03_14h23.25.595,contrast_sensitivity,2024.2.4,None,2025-02-03 14h23.30.336431 -0500
0.0001,1,1,279,69,3,right,0.48868687509093434,None,3,69,279,2,259.1568316249177,,,,259.1472062090179,259.7404645419447,260.2422803340014,right,0.48868687509093434,None,demo,001,2025-02-03_14h23.25.595,contrast_sensitivity,2024.2.4,None,2025-02-03 14h23.30.336431 -0500
0.001,1,16,280,0,4,right,0.5877583749825135,None,4,0,280,59,260.2520184589084,,,,260.2444187,260.8412459169049,261.4426164999604,right,0.5877583749825135,None,demo,001,2025-02-03_14h23.25.595,contrast_sensitivity,2024.2.4,None,2025-02-03 14h23.30.336431 -0500
0.001,-1,1,281,1,4,left,0.41575062507763505,None,4,1,281,10,261.45087866694666,,,,261.44484704197384,262.0404250000138,262.4597174170194,left,0.41575062507763505,None,demo,001,2025-02-03_14h23.25.595,contrast_sensitivity,2024.2.4,None,2025-02-03 14h23.30.336431 -0500
0.0001,-1,2,282,2,4,left,0.39864208293147385,None,4,2,282,23,262.46709683397785,,,,262.46197854191996,263.05643179197796,263.45811570901424,left,0.39864208293147385,None,demo,001,2025-02-03_14h23.25.595,contrast_sensitivity,2024.2.4,None,2025-02-03 14h23.30.336431 -0500
1e-08,1,16,283,3,4,right,0.3604817910818383,None,4,3,283,56,263.46379591699224,,,,263.4598221669439,264.04563279193826,264.4091466249665,right,0.3604817910818383,None,demo,001,2025-02-03_14h23.25.595,contrast_sensitivity,2024.2.4,None,2025-02-03 14h23.30.336431 -0500
0.001,1,8,284,4,4,right,0.2689433329505846,None,4,4,284,45,264.4177072090097,,,,264.41121637495235,265.00681524991523,265.28053495893255,right,0.2689433329505846,None,demo,001,2025-02-03_14h23.25.595,contrast_sensitivity,2024.2.4,None,2025-02-03 14h23.30.336431 -0500
1,1,16,285,5,4,right,0.14370420796331018,None,4,5,285,62,265.29012279200833,,,,265.28268641699106,265.8783746249974,266.0263621249469,right,0.14370420796331018,None,demo,001,2025-02-03_14h23.25.595,contrast_sensitivity,2024.2.4,None,2025-02-03 14h23.30.336431 -0500
0.01,1,16,286,6,4,right,0.40725870802998543,None,4,6,286,60,266.0342868339503,,,,266.02862179197837,266.6238037919393,267.04278095893096,right,0.40725870802998543,None,demo,001,2025-02-03_14h23.25.595,contrast_sensitivity,2024.2.4,None,2025-02-03 14h23.30.336431 -0500
1e-06,-1,16,287,7,4,left,0.6434299160027876,None,4,7,287,64,267.05123704194557,,,,267.045071,267.6405921250116,268.29266704199836,left,0.6434299160027876,None,demo,001,2025-02-03_14h23.25.595,contrast_sensitivity,2024.2.4,None,2025-02-03 14h23.30.336431 -0500
1e-06,1,4,288,8,4,right,0.2986272079870105,None,4,8,288,29,268.30147708393633,,,,268.29481533390936,268.8903391249478,269.1930089999223,right,0.2986272079870105,None,demo,001,2025-02-03_14h23.25.595,contrast_sensitivity,2024.2.4,None,2025-02-03 14h23.30.336431 -0500
0.001,-1,2,289,9,4,left,0.5501663329778239,None,4,9,289,24,269.2013767500175,,,,269.1952142919181,269.7903285420034,270.3427144169109,left,0.5501663329778239,None,demo,001,2025-02-03_14h23.25.595,contrast_sensitivity,2024.2.4,None,2025-02-03 14h23.30.336431 -0500
0.1,-1,16,290,10,4,left,0.39466066693421453,None,4,10,290,68,270.3573342919117,,,,270.3447405839106,270.93949283391703,271.34167195891496,left,0.39466066693421453,None,demo,001,2025-02-03_14h23.25.595,contrast_sensitivity,2024.2.4,None,2025-02-03 14h23.30.336431 -0500
1e-08,-1,4,291,11,4,left,0.3483772909967229,None,4,11,291,35,271.3471493339166,,,,271.3432217090158,271.9404822,272.2914005420171,left,0.3483772909967229,None,demo,001,2025-02-03_14h23.25.595,contrast_sensitivity,2024.2.4,None,2025-02-03 14h23.30.336431 -0500
0.0001,1,16,292,12,4,right,0.4981042919680476,None,4,12,292,58,272.29727483401075,,,,272.2929262,272.8907262919238,273.39257408399135,right,0.4981042919680476,None,demo,001,2025-02-03_14h23.25.595,contrast_sensitivity,2024.2.4,None,2025-02-03 14h23.30.336431 -0500
1e-06,-1,2,293,13,4,left,0.630979375,None,4,13,293,22,273.3988379170187,,,,273.39406949991826,273.9900675419485,274.6263925419189,left,0.630979375,None,demo,001,2025-02-03_14h23.25.595,contrast_sensitivity,2024.2.4,None,2025-02-03 14h23.30.336431 -0500
1e-06,-1,8,294,14,4,left,0.6059642079053447,None,4,14,294,50,274.6405812499579,,,,274.62859537499025,275.2238439170178,275.8433339999756,left,0.6059642079053447,None,demo,001,2025-02-03_14h23.25.595,contrast_sensitivity,2024.2.4,None,2025-02-03 14h23.30.336431 -0500
0.0001,-1,8,295,15,4,left,0.17418608302250504,None,4,15,295,51,275.8516702919733,,,,275.8458295839373,276.44061462499667,276.6260510839056,left,0.17418608302250504,None,demo,001,2025-02-03_14h23.25.595,contrast_sensitivity,2024.2.4,None,2025-02-03 14h23.30.336431 -0500
1e-06,1,16,296,16,4,left,0.411002041,None,4,16,296,57,276.6357627919642,,,,276.6280743749812,277.2238901669625,277.6429519999074,left,0.411002041,None,demo,001,2025-02-03_14h23.25.595,contrast_sensitivity,2024.2.4,None,2025-02-03 14h23.30.336431 -0500
0.1,-1,2,297,17,4,left,0.3843929989961907,None,4,17,297,26,277.6511925839586,,,,277.6451617919374,278.2403562089894,278.63015983393416,left,0.3843929989961907,None,demo,001,2025-02-03_14h23.25.595,contrast_sensitivity,2024.2.4,None,2025-02-03 14h23.30.336431 -0500
0.0001,1,2,298,18,4,left,0.8722761659882963,None,4,18,298,16,278.6390307499096,,,,278.6324768339982,279.2264381669229,280.1097952919081,left,0.8722761659882963,None,demo,001,2025-02-03_14h23.25.595,contrast_sensitivity,2024.2.4,None,2025-02-03 14h23.30.336431 -0500
1e-06,1,1,299,19,4,right,0.3826582500478253,None,4,19,299,1,280.1187067090068,,,,280.11161045893095,280.7070266669616,281.0929081249051,right,0.3826582500478253,None,demo,001,2025-02-03_14h23.25.595,contrast_sensitivity,2024.2.4,None,2025-02-03 14h23.30.336431 -0500
0.001,1,2,300,20,4,right,0.27529250003863126,None,4,20,300,17,281.1009680000134,,,,281.0949732,281.6903447919758,281.97576137492433,right,0.27529250003863126,None,demo,001,2025-02-03_14h23.25.595,contrast_sensitivity,2024.2.4,None,2025-02-03 14h23.30.336431 -0500
0.0001,1,4,301,21,4,right,0.21792458300478756,None,4,21,301,30,281.9840076249093,,,,281.9777096249163,282.5737215419067,282.79621658392716,right,0.21792458300478756,None,demo,001,2025-02-03_14h23.25.595,contrast_sensitivity,2024.2.4,None,2025-02-03 14h23.30.336431 -0500
0.1,-1,1,302,22,4,left,0.27060166699811816,None,4,22,302,12,282.80687654193025,,,,282.79841320891865,283.39500224997755,283.6762244589627,left,0.27060166699811816,None,demo,001,2025-02-03_14h23.25.595,contrast_sensitivity,2024.2.4,None,2025-02-03 14h23.30.336431 -0500
0.001,1,1,303,23,4,left,0.25947737402748317,None,4,23,303,3,283.68389295891393,,,,283.6786310839234,284.27424712490756,284.54264333401807,left,0.25947737402748317,None,demo,001,2025-02-03_14h23.25.595,contrast_sensitivity,2024.2.4,None,2025-02-03 14h23.30.336431 -0500
0.1,-1,8,304,24,4,left,0.16110216605011374,None,4,24,304,54,284.5507628,,,,284.54482741700485,285.1404714169912,285.3094120839378,left,0.16110216605011374,None,demo,001,2025-02-03_14h23.25.595,contrast_sensitivity,2024.2.4,None,2025-02-03 14h23.30.336431 -0500
1e-08,1,4,305,25,4,left,0.093615624,None,4,25,305,28,285.31826612493023,,,,285.3118204169441,285.9070918749785,286.00911783392075,left,0.093615624,None,demo,001,2025-02-03_14h23.25.595,contrast_sensitivity,2024.2.4,None,2025-02-03 14h23.30.336431 -0500
0.01,-1,1,306,26,4,left,0.2354476669570431,None,4,26,306,11,286.0177623749478,,,,286.0115091250045,286.60707658401225,286.8489118339494,left,0.2354476669570431,None,demo,001,2025-02-03_14h23.25.595,contrast_sensitivity,2024.2.4,None,2025-02-03 14h23.30.336431 -0500
0.1,1,8,307,27,4,right,0.20264591602608562,None,4,27,307,47,286.8569721,,,,286.8501907089958,287.4438478340162,287.6575837089913,right,0.20264591602608562,None,demo,001,2025-02-03_14h23.25.595,contrast_sensitivity,2024.2.4,None,2025-02-03 14h23.30.336431 -0500
0.001,-1,4,308,28,4,left,0.3302119158906862,None,4,28,308,38,287.6626046249876,,,,287.6588340419112,288.2582862089621,288.59251545893494,left,0.3302119158906862,None,demo,001,2025-02-03_14h23.25.595,contrast_sensitivity,2024.2.4,None,2025-02-03 14h23.30.336431 -0500
1,1,2,309,29,4,right,0.18845100002363324,None,4,29,309,20,288.6006393339485,,,,288.5944353339728,289.1910359589383,289.3927026250167,right,0.18845100002363324,None,demo,001,2025-02-03_14h23.25.595,contrast_sensitivity,2024.2.4,None,2025-02-03 14h23.30.336431 -0500
0.01,-1,8,310,30,4,left,0.3854810829507187,None,4,30,310,53,289.4072681249818,,,,289.39481316693127,290.00795095891226,290.3960013749311,left,0.3854810829507187,None,demo,001,2025-02-03_14h23.25.595,contrast_sensitivity,2024.2.4,None,2025-02-03 14h23.30.336431 -0500
1e-08,-1,1,311,31,4,left,0.41890654095914215,None,4,31,311,7,290.4070744999917,,,,290.3979334169999,291.00753962493036,291.44350483396556,left,0.41890654095914215,None,demo,001,2025-02-03_14h23.25.595,contrast_sensitivity,2024.2.4,None,2025-02-03 14h23.30.336431 -0500
1,1,8,312,32,4,right,0.17261300003156066,None,4,32,312,48,291.45699029194657,,,,291.4457642919151,292.04078087501694,292.2255712089827,right,0.17261300003156066,None,demo,001,2025-02-03_14h23.25.595,contrast_sensitivity,2024.2.4,None,2025-02-03 14h23.30.336431 -0500
0.0001,-1,16,313,33,4,right,0.3479584159795195,None,4,33,313,65,292.2403973749606,,,,292.22675020899624,292.8284643749939,293.1796004589414,right,0.3479584159795195,None,demo,001,2025-02-03_14h23.25.595,contrast_sensitivity,2024.2.4,None,2025-02-03 14h23.30.336431 -0500
0.1,1,1,314,34,4,right,0.19758024998009205,None,4,34,314,5,293.1900794169633,,,,293.1820658749202,293.77878699998837,293.97969295899384,right,0.19758024998009205,None,demo,001,2025-02-03_14h23.25.595,contrast_sensitivity,2024.2.4,None,2025-02-03 14h23.30.336431 -0500
1e-08,1,8,315,35,4,right,0.668013166,None,4,35,315,42,293.99011579190847,,,,293.98210112494417,294.5782874999568,295.25727087492123,right,0.668013166,None,demo,001,2025-02-03_14h23.25.595,contrast_sensitivity,2024.2.4,None,2025-02-03 14h23.30.336431 -0500
0.1,1,16,316,36,4,right,0.18908383301459253,None,4,36,316,61,295.2625594169367,,,,295.2585510419449,295.85618937492836,296.05753366695717,right,0.18908383301459253,None,demo,001,2025-02-03_14h23.25.595,contrast_sensitivity,2024.2.4,None,2025-02-03 14h23.30.336431 -0500
0.01,1,1,317,37,4,right,0.603594291,None,4,37,317,4,296.06321529194247,,,,296.05910391698126,296.64576866698917,297.25974758400116,right,0.603594291,None,demo,001,2025-02-03_14h23.25.595,contrast_sensitivity,2024.2.4,None,2025-02-03 14h23.30.336431 -0500
1,-1,1,318,38,4,left,0.20627279195468873,None,4,38,318,13,297.26831870898604,,,,297.2623112089932,297.85699195892084,298.075577,left,0.20627279195468873,None,demo,001,2025-02-03_14h23.25.595,contrast_sensitivity,2024.2.4,None,2025-02-03 14h23.30.336431 -0500
1e-08,1,1,319,39,4,left,0.21157087408937514,None,4,39,319,0,298.0820592499804,,,,298.0773912089644,298.67370325000957,298.89300174999516,left,0.21157087408937514,None,demo,001,2025-02-03_14h23.25.595,contrast_sensitivity,2024.2.4,None,2025-02-03 14h23.30.336431 -0500
0.001,-1,8,320,40,4,left,0.22461066604591906,None,4,40,320,52,298.9003403339302,,,,298.8952033749083,299.49059529195074,299.72590429196134,left,0.22461066604591906,None,demo,001,2025-02-03_14h23.25.595,contrast_sensitivity,2024.2.4,None,2025-02-03 14h23.30.336431 -0500
0.001,1,4,321,41,4,right,0.26671454100869596,None,4,41,321,31,299.73437416693196,,,,299.727985,300.32846537500154,300.60958962491713,right,0.26671454100869596,None,demo,001,2025-02-03_14h23.25.595,contrast_sensitivity,2024.2.4,None,2025-02-03 14h23.30.336431 -0500
0.01,-1,16,322,42,4,left,0.25825529103167355,None,4,42,322,67,300.62402816698886,,,,300.61153741693124,301.2071028749924,301.47618654195685,left,0.25825529103167355,None,demo,001,2025-02-03_14h23.25.595,contrast_sensitivity,2024.2.4,None,2025-02-03 14h23.30.336431 -0500
1e-08,1,2,323,43,4,left,0.21789624996017665,None,4,43,323,14,301.49039991700556,,,,301.4786007499788,302.07423724990804,302.29531545890495,left,0.21789624996017665,None,demo,001,2025-02-03_14h23.25.595,contrast_sensitivity,2024.2.4,None,2025-02-03 14h23.30.336431 -0500
0.0001,-1,1,324,44,4,left,0.43177870800718665,None,4,44,324,9,302.3063384999987,,,,302.2971228749957,302.8949092089897,303.32822208397556,left,0.43177870800718665,None,demo,001,2025-02-03_14h23.25.595,contrast_sensitivity,2024.2.4,None,2025-02-03 14h23.30.336431 -0500
1,1,1,325,45,4,right,0.3027027079369873,None,4,45,325,6,303.3393747919472,,,,303.3295951249311,303.92540795891546,304.2413801669609,right,0.3027027079369873,None,demo,001,2025-02-03_14h23.25.595,contrast_sensitivity,2024.2.4,None,2025-02-03 14h23.30.336431 -0500
0.01,-1,2,326,46,4,left,0.26032237499020994,None,4,46,326,25,304.24732091696933,,,,304.2428349999245,304.8408515419578,305.10950091690756,left,0.26032237499020994,None,demo,001,2025-02-03_14h23.25.595,contrast_sensitivity,2024.2.4,None,2025-02-03 14h23.30.336431 -0500
0.01,1,8,327,47,4,right,0.20282195799518377,None,4,47,327,46,305.1169870420126,,,,305.11175191693474,305.7072084589163,305.92672620899975,right,0.20282195799518377,None,demo,001,2025-02-03_14h23.25.595,contrast_sensitivity,2024.2.4,None,2025-02-03 14h23.30.336431 -0500
0.001,-1,16,328,48,4,left,0.5921040829271078,None,4,48,328,66,305.94040129194036,,,,305.9283048339421,306.5410324590048,307.14294554200023,left,0.5921040829271078,None,demo,001,2025-02-03_14h23.25.595,contrast_sensitivity,2024.2.4,None,2025-02-03 14h23.30.336431 -0500
1e-06,1,8,329,49,4,right,0.30437762499786913,None,4,49,329,43,307.15179879195057,,,,307.1452355419751,307.74060762498993,308.0480075839441,right,0.30437762499786913,None,demo,001,2025-02-03_14h23.25.595,contrast_sensitivity,2024.2.4,None,2025-02-03 14h23.30.336431 -0500
0.1,1,2,330,50,4,right,0.060012125060893595,None,4,50,330,19,308.05715295893606,,,,308.0502044589957,308.64501308393665,308.7092689590063,right,0.060012125060893595,None,demo,001,2025-02-03_14h23.25.595,contrast_sensitivity,2024.2.4,None,2025-02-03 14h23.30.336431 -0500
1e-06,-1,1,331,51,4,left,0.31340312503743917,None,4,51,331,8,308.7159666669322,,,,308.71164404193405,309.30962091695983,309.62654141697567,left,0.31340312503743917,None,demo,001,2025-02-03_14h23.25.595,contrast_sensitivity,2024.2.4,None,2025-02-03 14h23.30.336431 -0500
0.0001,-1,4,332,52,4,left,0.1339848330244422,None,4,52,332,37,309.63539529195987,,,,309.6287380839931,310.2239435840165,310.3686155419564,left,0.1339848330244422,None,demo,001,2025-02-03_14h23.25.595,contrast_sensitivity,2024.2.4,None,2025-02-03 14h23.30.336431 -0500
1,-1,16,333,53,4,left,0.11210337502416223,None,4,53,333,69,310.3775373339886,,,,310.3700390839949,310.95983933401294,311.07543945894577,left,0.11210337502416223,None,demo,001,2025-02-03_14h23.25.595,contrast_sensitivity,2024.2.4,None,2025-02-03 14h23.30.336431 -0500
1e-06,-1,4,334,54,4,left,0.26876883301883936,None,4,54,334,36,311.0816333339317,,,,311.07710212492384,311.67318270890974,311.9464813749073,left,0.26876883301883936,None,demo,001,2025-02-03_14h23.25.595,contrast_sensitivity,2024.2.4,None,2025-02-03 14h23.30.336431 -0500
1e-08,-1,16,335,55,4,right,0.27253216598182917,None,4,55,335,63,311.95696724997833,,,,311.9486598339863,312.5444604170043,312.8253919169074,right,0.27253216598182917,None,demo,001,2025-02-03_14h23.25.595,contrast_sensitivity,2024.2.4,None,2025-02-03 14h23.30.336431 -0500
0.1,-1,4,336,56,4,left,0.17615808302070946,None,4,56,336,40,312.83359225001186,,,,312.8275692919269,313.4238487499533,313.60939804196823,left,0.17615808302070946,None,demo,001,2025-02-03_14h23.25.595,contrast_sensitivity,2024.2.4,None,2025-02-03 14h23.30.336431 -0500
0.01,1,4,337,57,4,right,0.20476987503934652,None,4,57,337,32,313.6177130419528,,,,313.61178629193455,314.20706287492067,314.4258224,right,0.20476987503934652,None,demo,001,2025-02-03_14h23.25.595,contrast_sensitivity,2024.2.4,None,2025-02-03 14h23.30.336431 -0500
0.0001,1,8,338,58,4,right,0.17885895806830376,None,4,58,338,44,314.43424491700716,,,,314.4281372919213,315.02398995892145,315.2091103339335,right,0.17885895806830376,None,demo,001,2025-02-03_14h23.25.595,contrast_sensitivity,2024.2.4,None,2025-02-03 14h23.30.336431 -0500
1e-08,-1,8,339,59,4,left,0.5302400829968974,None,4,59,339,49,315.2174333749572,,,,315.2115510000149,315.8067344999872,316.34208545892034,left,0.5302400829968974,None,demo,001,2025-02-03_14h23.25.595,contrast_sensitivity,2024.2.4,None,2025-02-03 14h23.30.336431 -0500
0.1,1,4,340,60,4,right,0.23228895792271942,None,4,60,340,33,316.3506955419434,,,,316.34415658400394,316.9404952089535,317.1761178749148,right,0.23228895792271942,None,demo,001,2025-02-03_14h23.25.595,contrast_sensitivity,2024.2.4,None,2025-02-03 14h23.30.336431 -0500
0.01,-1,4,341,61,4,right,0.36398837505839765,None,4,61,341,39,317.1844927499769,,,,317.17814037494827,317.7737872499274,318.1458734169137,right,0.36398837505839765,None,demo,001,2025-02-03_14h23.25.595,contrast_sensitivity,2024.2.4,None,2025-02-03 14h23.30.336431 -0500
1,1,4,342,62,4,right,0.22023554192855954,None,4,62,342,34,318.1570679999422,,,,318.1467122499598,318.7435023749713,318.9746057499433,right,0.22023554192855954,None,demo,001,2025-02-03_14h23.25.595,contrast_sensitivity,2024.2.4,None,2025-02-03 14h23.30.336431 -0500
1e-08,-1,2,343,63,4,left,0.2116575000109151,None,4,63,343,21,318.9805842919741,,,,318.97616233397275,319.57307054195553,319.79298866691533,left,0.2116575000109151,None,demo,001,2025-02-03_14h23.25.595,contrast_sensitivity,2024.2.4,None,2025-02-03 14h23.30.336431 -0500
0.01,1,2,344,64,4,left,0.25526487501338124,None,4,64,344,18,319.8016287,,,,319.79506254196167,320.39042891701683,320.65957183390856,left,0.25526487501338124,None,demo,001,2025-02-03_14h23.25.595,contrast_sensitivity,2024.2.4,None,2025-02-03 14h23.30.336431 -0500
1,-1,4,345,65,4,left,0.085173083,None,4,65,345,41,320.66762133396696,,,,320.6616147919558,321.25697537499946,321.3462295839563,left,0.085173083,None,demo,001,2025-02-03_14h23.25.595,contrast_sensitivity,2024.2.4,None,2025-02-03 14h23.30.336431 -0500
0.0001,1,1,346,66,4,left,0.25793641596101224,None,4,66,346,2,321.3568203749601,,,,321.34859162499197,321.9458046669606,322.2093444169732,left,0.25793641596101224,None,demo,001,2025-02-03_14h23.25.595,contrast_sensitivity,2024.2.4,None,2025-02-03 14h23.30.336431 -0500
1e-06,1,2,347,67,4,right,0.21455091692041606,None,4,67,347,15,322.21722941694316,,,,322.2118391249096,322.80710699991323,323.0266080839792,right,0.21455091692041606,None,demo,001,2025-02-03_14h23.25.595,contrast_sensitivity,2024.2.4,None,2025-02-03 14h23.30.336431 -0500
1,-1,8,348,68,4,left,0.21382587507832795,None,4,68,348,55,323.03538245894015,,,,323.0288922089385,323.6238191250013,323.84255466691684,left,0.21382587507832795,None,demo,001,2025-02-03_14h23.25.595,contrast_sensitivity,2024.2.4,None,2025-02-03 14h23.30.336431 -0500
1,-1,2,349,69,4,left,0.24737666605506092,None,4,69,349,27,323.85699487500824,,,,323.8447146669496,324.45730991696473,324.7091255839914,left,0.24737666605506092,None,demo,001,2025-02-03_14h23.25.595,contrast_sensitivity,2024.2.4,None,2025-02-03 14h23.30.336431 -0500
1,-1,4,350,0,5,left,0.2327257909346372,None,5,0,350,41,324.71628645900637,,,,324.7113348749699,325.3278449999634,325.5761895419564,left,0.2327257909346372,None,demo,001,2025-02-03_14h23.25.595,contrast_sensitivity,2024.2.4,None,2025-02-03 14h23.30.336431 -0500
0.1,1,8,351,1,5,right,0.13177591701969504,None,5,1,351,47,325.5902909169672,,,,325.5784894999815,326.1727647499647,326.30744804197457,right,0.13177591701969504,None,demo,001,2025-02-03_14h23.25.595,contrast_sensitivity,2024.2.4,None,2025-02-03 14h23.30.336431 -0500
0.001,1,1,352,2,5,right,0.4697749170009047,None,5,2,352,3,326.3125773339998,,,,326.3086792919785,326.90672966698185,327.3907831669785,right,0.4697749170009047,None,demo,001,2025-02-03_14h23.25.595,contrast_sensitivity,2024.2.4,None,2025-02-03 14h23.30.336431 -0500
1,1,4,353,3,5,right,0.3554337490350008,None,5,3,353,34,327.3965186669957,,,,327.3919972499134,327.9911284999689,328.35956324997824,right,0.3554337490350008,None,demo,001,2025-02-03_14h23.25.595,contrast_sensitivity,2024.2.4,None,2025-02-03 14h23.30.336431 -0500
1e-08,-1,16,354,4,5,right,0.46828537504188716,None,5,4,354,63,328.3735568339471,,,,328.3619639169192,328.95718633395154,329.4291791669093,right,0.46828537504188716,None,demo,001,2025-02-03_14h23.25.595,contrast_sensitivity,2024.2.4,None,2025-02-03 14h23.30.336431 -0500
0.1,1,4,355,5,5,right,0.24433120794128627,None,5,5,355,33,329.4399819589453,,,,329.43088858400006,330.0410018749535,330.2920688749291,right,0.24433120794128627,None,demo,001,2025-02-03_14h23.25.595,contrast_sensitivity,2024.2.4,None,2025-02-03 14h23.30.336431 -0500
1e-06,1,1,356,6,5,right,0.15544050000607967,None,5,6,356,1,330.3005052090157,,,,330.29378341697156,330.9080055420054,331.07632020895835,right,0.15544050000607967,None,demo,001,2025-02-03_14h23.25.595,contrast_sensitivity,2024.2.4,None,2025-02-03 14h23.30.336431 -0500
0.0001,1,8,357,7,5,right,0.3611303330399096,None,5,7,357,44,331.0853674,,,,331.0788275,331.67335829196963,332.0429880839074,right,0.3611303330399096,None,demo,001,2025-02-03_14h23.25.595,contrast_sensitivity,2024.2.4,None,2025-02-03 14h23.30.336431 -0500
0.01,-1,2,358,8,5,left,0.3387161240680143,None,5,8,358,25,332.0513159999391,,,,332.0451373,332.64068166702054,332.9924095,left,0.3387161240680143,None,demo,001,2025-02-03_14h23.25.595,contrast_sensitivity,2024.2.4,None,2025-02-03 14h23.30.336431 -0500
0.001,1,2,359,9,5,left,0.3820515419356525,None,5,9,359,17,333.0020689589437,,,,332.9954119590111,333.58963270892855,333.9758457499556,left,0.3820515419356525,None,demo,001,2025-02-03_14h23.25.595,contrast_sensitivity,2024.2.4,None,2025-02-03 14h23.30.336431 -0500
0.1,-1,4,360,10,5,left,0.2509312080219388,None,5,10,360,40,333.9823996669147,,,,333.9775874170009,334.5744509169599,334.8297903749626,left,0.2509312080219388,None,demo,001,2025-02-03_14h23.25.595,contrast_sensitivity,2024.2.4,None,2025-02-03 14h23.30.336431 -0500
0.01,1,2,361,11,5,left,0.32311387406662107,None,5,11,361,18,334.8400226669619,,,,334.8318302499829,335.4283875839319,335.75996041693725,left,0.32311387406662107,None,demo,001,2025-02-03_14h23.25.595,contrast_sensitivity,2024.2.4,None,2025-02-03 14h23.30.336431 -0500
0.01,-1,16,362,12,5,left,0.25894912506919354,None,5,12,362,67,335.7689094999805,,,,335.762852,336.35732041695155,336.62448066694196,left,0.25894912506919354,None,demo,001,2025-02-03_14h23.25.595,contrast_sensitivity,2024.2.4,None,2025-02-03 14h23.30.336431 -0500
0.1,-1,1,363,13,5,left,0.30430041707586497,None,5,13,363,12,336.6301086669555,,,,336.62600904190913,337.21203991700895,337.52622895897366,left,0.30430041707586497,None,demo,001,2025-02-03_14h23.25.595,contrast_sensitivity,2024.2.4,None,2025-02-03 14h23.30.336431 -0500
0.0001,-1,4,364,14,5,left,0.20965262409299612,None,5,14,364,37,337.53451529191807,,,,337.52849770896137,338.1236296669813,338.34251808398403,left,0.20965262409299612,None,demo,001,2025-02-03_14h23.25.595,contrast_sensitivity,2024.2.4,None,2025-02-03 14h23.30.336431 -0500
0.0001,1,16,365,15,5,left,0.31411266594659537,None,5,15,365,58,338.3516505419975,,,,338.34492929198314,338.9403224999551,339.25974466698244,left,0.31411266594659537,None,demo,001,2025-02-03_14h23.25.595,contrast_sensitivity,2024.2.4,None,2025-02-03 14h23.30.336431 -0500
0.1,1,16,366,16,5,right,0.29117933299858123,None,5,16,366,61,339.26873404195067,,,,339.26221054198686,339.85712208400946,340.1595288339304,right,0.29117933299858123,None,demo,001,2025-02-03_14h23.25.595,contrast_sensitivity,2024.2.4,None,2025-02-03 14h23.30.336431 -0500
0.0001,1,4,367,17,5,right,0.2720315830083564,None,5,17,367,30,340.1673575839959,,,,340.16176170890685,340.75714483391494,341.0412914589979,right,0.2720315830083564,None,demo,001,2025-02-03_14h23.25.595,contrast_sensitivity,2024.2.4,None,2025-02-03 14h23.30.336431 -0500
0.001,1,8,368,18,5,right,0.3483967500505969,None,5,18,368,45,341.0468421669211,,,,341.04274079191964,341.6397352919448,341.9915453749709,right,0.3483967500505969,None,demo,001,2025-02-03_14h23.25.595,contrast_sensitivity,2024.2.4,None,2025-02-03 14h23.30.336431 -0500
0.01,1,1,369,19,5,left,0.5156865,None,5,19,369,4,341.9970921,,,,341.9931417499902,342.5905569589231,343.1095847089309,left,0.5156865,None,demo,001,2025-02-03_14h23.25.595,contrast_sensitivity,2024.2.4,None,2025-02-03 14h23.30.336431 -0500
1e-06,-1,4,370,20,5,left,0.3651925000594929,None,5,20,370,36,343.1178022919921,,,,343.1118926,343.70610416692216,344.0759084169986,left,0.3651925000594929,None,demo,001,2025-02-03_14h23.25.595,contrast_sensitivity,2024.2.4,None,2025-02-03 14h23.30.336431 -0500
1e-06,-1,16,371,21,5,left,0.42621591698843986,None,5,21,371,64,344.0847057920182,,,,344.0783830839209,344.67405358399265,345.10875024995767,left,0.42621591698843986,None,demo,001,2025-02-03_14h23.25.595,contrast_sensitivity,2024.2.4,None,2025-02-03 14h23.30.336431 -0500
0.01,-1,4,372,22,5,left,0.3214754580985755,None,5,22,372,39,345.11591670894995,,,,345.11105304199737,345.70760233397596,346.04221237497404,left,0.3214754580985755,None,demo,001,2025-02-03_14h23.25.595,contrast_sensitivity,2024.2.4,None,2025-02-03 14h23.30.336431 -0500
1e-08,-1,8,373,23,5,left,0.3255222080042586,None,5,23,373,49,346.05125020898413,,,,346.0443995419191,346.6405615839176,346.97653645894025,left,0.3255222080042586,None,demo,001,2025-02-03_14h23.25.595,contrast_sensitivity,2024.2.4,None,2025-02-03 14h23.30.336431 -0500
