contrast,location,cpd,thisN,thisTrialN,thisRepN,response.keys,response.rt,response.duration,trials.thisRepN,trials.thisTrialN,trials.thisN,trials.thisIndex,thisRow.t,notes,begin_experiment.started,begin_experiment.stopped,trial.started,response.started,trial.stopped,trials.response.keys,trials.response.rt,trials.response.duration,participant,session,date,expName,psychopyVersion,frameRate,expStart,
,,,,,,,,,,,,,,,0.00804470805451274,1.1775374580174685,,,,,,,demo,001,2025-02-03_13h44.20.629,contrast_sensitivity,2024.2.4,None,2025-02-03 13h44.25.993894 -0500,
0.0001,1,4,0,0,0,right,0.9545634579844773,None,0,0,0,25,1.1893675830215216,,,,1.1837170420913026,1.7752170420717448,2.736753167002462,right,0.9545634579844773,None,demo,001,2025-02-03_13h44.20.629,contrast_sensitivity,2024.2.4,None,2025-02-03 13h44.25.993894 -0500,
1.0,1,4,1,1,0,right,0.3845522910123691,None,0,1,1,29,2.7450924169970676,,,,2.738793875090778,3.334099542000331,3.723046167055145,right,0.3845522910123691,None,demo,001,2025-02-03_13h44.20.629,contrast_sensitivity,2024.2.4,None,2025-02-03 13h44.25.993894 -0500,
0.1,1,4,2,2,0,right,0.2645279159769416,None,0,2,2,28,3.7335227919975296,,,,3.7243874170817435,4.318119833013043,4.587048000073992,right,0.2645279159769416,None,demo,001,2025-02-03_13h44.20.629,contrast_sensitivity,2024.2.4,None,2025-02-03 13h44.25.993894 -0500,
0.0001,1,1,3,3,0,right,0.27750912494957447,None,0,3,3,1,4.596007458050735,,,,4.589275583042763,5.185123750008643,5.471171708079055,right,0.27750912494957447,None,demo,001,2025-02-03_13h44.20.629,contrast_sensitivity,2024.2.4,None,2025-02-03 13h44.25.993894 -0500,
1e-08,-1,4,4,4,0,right,0.4150549580808729,None,0,4,4,30,5.479892458068207,,,,5.473624792066403,6.068560167099349,6.487579417065717,right,0.4150549580808729,None,demo,001,2025-02-03_13h44.20.629,contrast_sensitivity,2024.2.4,None,2025-02-03 13h44.25.993894 -0500,
0.01,-1,8,5,5,0,left,0.22742374998051673,None,0,5,5,44,6.501757667050697,,,,6.489691208000295,7.085169458063319,7.321498583070934,left,0.22742374998051673,None,demo,001,2025-02-03_13h44.20.629,contrast_sensitivity,2024.2.4,None,2025-02-03 13h44.25.993894 -0500,
1.0,1,8,6,6,0,right,0.36216933303512633,None,0,6,6,41,7.330090667004697,,,,7.323704208014533,7.9185405829921365,8.28727708302904,right,0.36216933303512633,None,demo,001,2025-02-03_13h44.20.629,contrast_sensitivity,2024.2.4,None,2025-02-03 13h44.25.993894 -0500,
1e-08,1,8,7,7,0,right,0.4453769159736112,None,0,7,7,36,8.294682583073154,,,,8.289578417083248,8.903169375029393,9.357284750090912,right,0.4453769159736112,None,demo,001,2025-02-03_13h44.20.629,contrast_sensitivity,2024.2.4,None,2025-02-03 13h44.25.993894 -0500,
0.0001,1,8,8,8,0,right,0.2480785419465974,None,0,8,8,37,9.368499750038609,,,,9.359600041992962,9.955422208062373,10.220531958038919,right,0.2480785419465974,None,demo,001,2025-02-03_13h44.20.629,contrast_sensitivity,2024.2.4,None,2025-02-03 13h44.25.993894 -0500,
0.1,1,2,9,9,0,right,0.20528329093940556,None,0,9,9,16,10.229607292101718,,,,10.223137416993268,10.81854937504977,11.035888332989998,right,0.20528329093940556,None,demo,001,2025-02-03_13h44.20.629,contrast_sensitivity,2024.2.4,None,2025-02-03 13h44.25.993894 -0500,
0.0001,-1,8,10,10,0,left,0.2247324159834534,None,0,10,10,43,11.041071458021179,,,,11.037269917083904,11.634022625046782,11.86923012509942,left,0.2247324159834534,None,demo,001,2025-02-03_13h44.20.629,contrast_sensitivity,2024.2.4,None,2025-02-03 13h44.25.993894 -0500,
0.05,1,8,11,11,0,right,0.08260712400078773,None,0,11,11,39,11.874234082992189,,,,11.870617250096984,12.456905250088312,12.552591667044908,right,0.08260712400078773,None,demo,001,2025-02-03_13h44.20.629,contrast_sensitivity,2024.2.4,None,2025-02-03 13h44.25.993894 -0500,
0.1,-1,16,12,12,0,left,0.12433404102921486,None,0,12,12,58,12.558342875097878,,,,12.554090208024718,13.143197583034635,13.271024625049904,left,0.12433404102921486,None,demo,001,2025-02-03_13h44.20.629,contrast_sensitivity,2024.2.4,None,2025-02-03 13h44.25.993894 -0500,
0.05,1,16,13,13,0,left,1.0622880830196664,None,0,13,13,51,13.279993875068612,,,,13.27348662505392,13.87311841698829,14.941699500079267,left,1.0622880830196664,None,demo,001,2025-02-03_13h44.20.629,contrast_sensitivity,2024.2.4,None,2025-02-03 13h44.25.993894 -0500,
0.01,-1,4,14,14,0,left,0.11301995790563524,None,0,14,14,32,14.951091667055152,,,,14.944224208011292,15.539352292078547,15.657782000023872,left,0.11301995790563524,None,demo,001,2025-02-03_13h44.20.629,contrast_sensitivity,2024.2.4,None,2025-02-03 13h44.25.993894 -0500,
0.05,-1,1,15,15,0,left,0.04158849909435958,None,0,15,15,9,15.668108292040415,,,,15.660022417083383,16.256809832993895,16.303581417072564,left,0.04158849909435958,None,demo,001,2025-02-03_13h44.20.629,contrast_sensitivity,2024.2.4,None,2025-02-03 13h44.25.993894 -0500,
0.0001,1,2,16,16,0,right,0.03356295800767839,None,0,16,16,13,16.312438042019494,,,,16.305683667073026,16.901763333007693,16.9407955420902,right,0.03356295800767839,None,demo,001,2025-02-03_13h44.20.629,contrast_sensitivity,2024.2.4,None,2025-02-03 13h44.25.993894 -0500,
0.05,-1,16,17,17,0,left,0.06201766605954617,None,0,17,17,57,16.951095208059996,,,,16.943166707991622,17.552317792084068,17.6199928750284,left,0.06201766605954617,None,demo,001,2025-02-03_13h44.20.629,contrast_sensitivity,2024.2.4,None,2025-02-03 13h44.25.993894 -0500,
0.1,1,1,18,18,0,right,0.003000082913786173,None,0,18,18,4,17.62756691710092,,,,17.621718500042334,18.2183291669935,18.22381454205606,right,0.003000082913786173,None,demo,001,2025-02-03_13h44.20.629,contrast_sensitivity,2024.2.4,None,2025-02-03 13h44.25.993894 -0500,
0.1,-1,4,19,19,0,left,0.015688832965679467,None,0,19,19,34,18.234936458058655,,,,18.22529833309818,18.822617124998942,18.84136841702275,left,0.015688832965679467,None,demo,001,2025-02-03_13h44.20.629,contrast_sensitivity,2024.2.4,None,2025-02-03 13h44.25.993894 -0500,
1e-08,1,2,20,20,0,right,0.15803474991116673,None,0,20,20,12,18.85145720804576,,,,18.84303887502756,19.43825345800724,19.6022428330034,right,0.15803474991116673,None,demo,001,2025-02-03_13h44.20.629,contrast_sensitivity,2024.2.4,None,2025-02-03 13h44.25.993894 -0500,
1.0,-1,4,21,21,0,left,0.49345004197675735,None,0,21,21,35,19.60803066706285,,,,19.603588666999713,20.18885116709862,20.687383208074607,left,0.49345004197675735,None,demo,001,2025-02-03_13h44.20.629,contrast_sensitivity,2024.2.4,None,2025-02-03 13h44.25.993894 -0500,
1e-08,-1,16,22,22,0,right,0.6317976659629494,None,0,22,22,54,20.70168758300133,,,,20.689406167017296,21.289467542083003,21.937300292076543,right,0.6317976659629494,None,demo,001,2025-02-03_13h44.20.629,contrast_sensitivity,2024.2.4,None,2025-02-03 13h44.25.993894 -0500,
1.0,-1,1,23,23,0,left,0.3309267080621794,None,0,23,23,11,21.951384791987948,,,,21.9393411250785,22.535277583054267,22.872076542000286,left,0.3309267080621794,None,demo,001,2025-02-03_13h44.20.629,contrast_sensitivity,2024.2.4,None,2025-02-03 13h44.25.993894 -0500,
1e-08,-1,1,24,24,0,left,0.4638316660420969,None,0,24,24,6,22.885055917082354,,,,22.87402558303438,23.46852375008166,23.93740075000096,left,0.4638316660420969,None,demo,001,2025-02-03_13h44.20.629,contrast_sensitivity,2024.2.4,None,2025-02-03 13h44.25.993894 -0500,
1.0,-1,16,25,25,0,left,0.021778833004646003,None,0,25,25,59,23.945293792057782,,,,23.939348167041317,24.535328083089553,24.570328167057596,left,0.021778833004646003,None,demo,001,2025-02-03_13h44.20.629,contrast_sensitivity,2024.2.4,None,2025-02-03 13h44.25.993894 -0500,
1e-08,1,16,26,26,0,left,0.3693919579964131,None,0,26,26,48,24.57897162507288,,,,24.572853291989304,25.16777095803991,25.541197292041034,left,0.3693919579964131,None,demo,001,2025-02-03_13h44.20.629,contrast_sensitivity,2024.2.4,None,2025-02-03 13h44.25.993894 -0500,
0.01,1,8,27,27,0,right,0.14962974900845438,None,0,27,27,38,25.551510833087377,,,,25.543598833028227,26.13951241702307,26.291094499989413,right,0.14962974900845438,None,demo,001,2025-02-03_13h44.20.629,contrast_sensitivity,2024.2.4,None,2025-02-03 13h44.25.993894 -0500,
1.0,1,2,28,28,0,right,0.2558497489662841,None,0,28,28,17,26.301375292008743,,,,26.292611292097718,26.885277958004735,27.144570625037886,right,0.2558497489662841,None,demo,001,2025-02-03_13h44.20.629,contrast_sensitivity,2024.2.4,None,2025-02-03 13h44.25.993894 -0500,
0.01,1,4,29,29,0,right,0.1944492079783231,None,0,29,29,26,27.151288625085726,,,,27.145503375097178,27.737654625088908,27.935890083084814,right,0.1944492079783231,None,demo,001,2025-02-03_13h44.20.629,contrast_sensitivity,2024.2.4,None,2025-02-03 13h44.25.993894 -0500,
0.0001,-1,1,30,30,0,left,0.13187041704077274,None,0,30,30,7,27.94140670809429,,,,27.937332000001334,28.53616120805964,28.670363292098045,left,0.13187041704077274,None,demo,001,2025-02-03_13h44.20.629,contrast_sensitivity,2024.2.4,None,2025-02-03 13h44.25.993894 -0500,
0.05,1,2,31,31,0,right,0.048330124001950026,None,0,31,31,15,28.68397474999074,,,,28.671002667048015,29.28597475006245,29.343436292023398,right,0.048330124001950026,None,demo,001,2025-02-03_13h44.20.629,contrast_sensitivity,2024.2.4,None,2025-02-03 13h44.25.993894 -0500,
0.01,1,2,32,32,0,right,0.20385299902409315,None,0,32,32,14,29.35134483303409,,,,29.34550887509249,29.942290792008862,30.155543083092198,right,0.20385299902409315,None,demo,001,2025-02-03_13h44.20.629,contrast_sensitivity,2024.2.4,None,2025-02-03 13h44.25.993894 -0500,
0.1,1,16,33,33,0,right,0.16514554107561707,None,0,33,33,52,30.16840366704855,,,,30.158021375071257,30.751914708060212,30.92052812501788,right,0.16514554107561707,None,demo,001,2025-02-03_13h44.20.629,contrast_sensitivity,2024.2.4,None,2025-02-03 13h44.25.993894 -0500,
1e-08,-1,8,34,34,0,right,0.44571587501559407,None,0,34,34,42,30.928927250090055,,,,30.922555083059706,31.518362708040513,31.970997625030577,right,0.44571587501559407,None,demo,001,2025-02-03_13h44.20.629,contrast_sensitivity,2024.2.4,None,2025-02-03 13h44.25.993894 -0500,
1e-08,-1,2,35,35,0,left,0.3033108739182353,None,0,35,35,18,31.97922462504357,,,,31.973282749997452,32.56872220803052,32.87387145799585,left,0.3033108739182353,None,demo,001,2025-02-03_13h44.20.629,contrast_sensitivity,2024.2.4,None,2025-02-03 13h44.25.993894 -0500,
0.01,-1,2,36,36,0,left,0.37635250005405396,None,0,36,36,20,32.885040958062746,,,,32.87606095802039,33.47265295800753,33.85457245807629,left,0.37635250005405396,None,demo,001,2025-02-03_13h44.20.629,contrast_sensitivity,2024.2.4,None,2025-02-03 13h44.25.993894 -0500,
0.05,-1,8,37,37,0,left,0.18428654107265174,None,0,37,37,45,33.86375320807565,,,,33.856888417038135,34.45169720798731,34.64127400005236,left,0.18428654107265174,None,demo,001,2025-02-03_13h44.20.629,contrast_sensitivity,2024.2.4,None,2025-02-03 13h44.25.993894 -0500,
1.0,1,16,38,38,0,right,0.9776022500591353,None,0,38,38,53,34.651485167094506,,,,34.64358695806004,35.252983750076964,36.23604345798958,right,0.9776022500591353,None,demo,001,2025-02-03_13h44.20.629,contrast_sensitivity,2024.2.4,None,2025-02-03 13h44.25.993894 -0500,
0.05,1,1,39,39,0,right,0.1342066660290584,None,0,39,39,3,36.24134208308533,,,,36.23740966699552,36.82370083301794,36.97043516708072,right,0.1342066660290584,None,demo,001,2025-02-03_13h44.20.629,contrast_sensitivity,2024.2.4,None,2025-02-03 13h44.25.993894 -0500,
0.01,1,1,40,40,0,right,0.10310770804062486,None,0,40,40,2,36.9793654170353,,,,36.972904541995376,37.56876891700085,37.674809292075224,right,0.10310770804062486,None,demo,001,2025-02-03_13h44.20.629,contrast_sensitivity,2024.2.4,None,2025-02-03 13h44.25.993894 -0500,
0.05,-1,2,41,41,0,left,0.016050082980655134,None,0,41,41,21,37.68406400003005,,,,37.67698137508705,38.27281658304855,38.30351650004741,left,0.016050082980655134,None,demo,001,2025-02-03_13h44.20.629,contrast_sensitivity,2024.2.4,None,2025-02-03 13h44.25.993894 -0500,
0.01,1,16,42,42,0,left,0.2070487500168383,None,0,42,42,50,38.31178400001954,,,,38.3054933330277,38.90179925004486,39.12047162500676,left,0.2070487500168383,None,demo,001,2025-02-03_13h44.20.629,contrast_sensitivity,2024.2.4,None,2025-02-03 13h44.25.993894 -0500,
0.01,-1,16,43,43,0,left,0.25047737499698997,None,0,43,43,56,39.12828016700223,,,,39.12260308302939,39.71831612510141,39.97381762508303,left,0.25047737499698997,None,demo,001,2025-02-03_13h44.20.629,contrast_sensitivity,2024.2.4,None,2025-02-03 13h44.25.993894 -0500,
0.05,-1,4,44,44,0,left,1.108504916075617,None,0,44,44,33,39.98488175007515,,,,39.97570287506096,40.568407500046305,41.68795220809989,left,1.108504916075617,None,demo,001,2025-02-03_13h44.20.629,contrast_sensitivity,2024.2.4,None,2025-02-03 13h44.25.993894 -0500,
1.0,-1,2,45,45,0,left,0.13843795796856284,None,0,45,45,23,41.69601604202762,,,,41.68997200008016,42.2853279580595,42.437695958069526,left,0.13843795796856284,None,demo,001,2025-02-03_13h44.20.629,contrast_sensitivity,2024.2.4,None,2025-02-03 13h44.25.993894 -0500,
1e-08,1,1,46,46,0,left,0.7056624580873176,None,0,46,46,0,42.44624670804478,,,,42.440514583024196,43.035069333040155,43.75292254204396,left,0.7056624580873176,None,demo,001,2025-02-03_13h44.20.629,contrast_sensitivity,2024.2.4,None,2025-02-03 13h44.25.993894 -0500,
0.1,-1,8,47,47,0,left,0.7869955830974504,None,0,47,47,46,43.75847891706508,,,,43.7545251250267,44.350723792100325,45.15416937507689,left,0.7869955830974504,None,demo,001,2025-02-03_13h44.20.629,contrast_sensitivity,2024.2.4,None,2025-02-03 13h44.25.993894 -0500,
1.0,-1,8,48,48,0,left,0.013849125010892749,None,0,48,48,47,45.16864329203963,,,,45.15637916699052,45.75196691707242,45.770929208025336,left,0.013849125010892749,None,demo,001,2025-02-03_13h44.20.629,contrast_sensitivity,2024.2.4,None,2025-02-03 13h44.25.993894 -0500,
0.0001,-1,16,49,49,0,left,0.07141783309634775,None,0,49,49,55,45.779650792013854,,,,45.77405412506778,46.38523120805621,46.470448333071545,left,0.07141783309634775,None,demo,001,2025-02-03_13h44.20.629,contrast_sensitivity,2024.2.4,None,2025-02-03 13h44.25.993894 -0500,
0.01,-1,1,50,50,0,left,0.04130874900147319,None,0,50,50,8,46.47922829200979,,,,46.47268425009679,47.0843495830195,47.1355900419876,left,0.04130874900147319,None,demo,001,2025-02-03_13h44.20.629,contrast_sensitivity,2024.2.4,None,2025-02-03 13h44.25.993894 -0500,
0.1,-1,1,51,51,0,left,0.8702887919498608,None,0,51,51,10,47.1414845000254,,,,47.136913583031856,47.73534750007093,48.62088195804972,left,0.8702887919498608,None,demo,001,2025-02-03_13h44.20.629,contrast_sensitivity,2024.2.4,None,2025-02-03 13h44.25.993894 -0500,
0.0001,-1,2,52,52,0,left,0.09097499994095415,None,0,52,52,19,48.63504437508527,,,,48.62324550002813,49.2186571250204,49.32034841703717,left,0.09097499994095415,None,demo,001,2025-02-03_13h44.20.629,contrast_sensitivity,2024.2.4,None,2025-02-03 13h44.25.993894 -0500,
0.0001,1,16,53,53,0,left,0.7314521659864113,None,0,53,53,49,49.32884804205969,,,,49.32249770802446,49.91915066703223,50.65391591703519,left,0.7314521659864113,None,demo,001,2025-02-03_13h44.20.629,contrast_sensitivity,2024.2.4,None,2025-02-03 13h44.25.993894 -0500,
0.1,1,8,54,54,0,right,1.0181115419836715,None,0,54,54,40,50.6605993330013,,,,50.656079333042726,51.25146733305883,52.27252241701353,right,1.0181115419836715,None,demo,001,2025-02-03_13h44.20.629,contrast_sensitivity,2024.2.4,None,2025-02-03 13h44.25.993894 -0500,
0.0001,-1,4,55,55,0,left,0.13477137393783778,None,0,55,55,31,52.284127708058804,,,,52.27377016702667,52.86844679201022,53.00763295800425,left,0.13477137393783778,None,demo,001,2025-02-03_13h44.20.629,contrast_sensitivity,2024.2.4,None,2025-02-03 13h44.25.993894 -0500,
1.0,1,1,56,56,0,right,0.12436504103243351,None,0,56,56,5,53.01819229207467,,,,53.00979525002185,53.61914541700389,53.755564292077906,right,0.12436504103243351,None,demo,001,2025-02-03_13h44.20.629,contrast_sensitivity,2024.2.4,None,2025-02-03 13h44.25.993894 -0500,
1e-08,1,4,57,57,0,left,0.22709816589485854,None,0,57,57,24,53.768433417077176,,,,53.75781625008676,54.369536417070776,54.60260712506715,left,0.22709816589485854,None,demo,001,2025-02-03_13h44.20.629,contrast_sensitivity,2024.2.4,None,2025-02-03 13h44.25.993894 -0500,
0.05,1,4,58,58,0,right,0.15286562393885106,None,0,58,58,27,54.608624542015605,,,,54.60408841702156,55.189792082994245,55.353918457985856,right,0.15286562393885106,None,demo,001,2025-02-03_13h44.20.629,contrast_sensitivity,2024.2.4,None,2025-02-03 13h44.25.993894 -0500,
0.1,-1,2,59,59,0,left,0.0800163330277428,None,0,59,59,22,55.362964417086914,,,,55.35645929200109,55.95160458306782,56.03766870801337,left,0.0800163330277428,None,demo,001,2025-02-03_13h44.20.629,contrast_sensitivity,2024.2.4,None,2025-02-03 13h44.25.993894 -0500,
0.0001,1,8,60,0,1,right,0.14240487501956522,None,1,0,60,37,56.04675270803273,,,,56.040287957992405,56.63518879201729,56.78733700001612,right,0.14240487501956522,None,demo,001,2025-02-03_13h44.20.629,contrast_sensitivity,2024.2.4,None,2025-02-03 13h44.25.993894 -0500,
0.1,-1,16,61,1,1,left,0.011997249908745289,None,1,1,61,58,56.795968708000146,,,,56.78929345798679,57.3847709170077,57.40242191706784,left,0.011997249908745289,None,demo,001,2025-02-03_13h44.20.629,contrast_sensitivity,2024.2.4,None,2025-02-03 13h44.25.993894 -0500,
0.01,-1,4,62,2,1,left,0.07230049907229841,None,1,2,62,32,57.40821141703054,,,,57.40380512503907,58.00213004206307,58.086926667019725,left,0.07230049907229841,None,demo,001,2025-02-03_13h44.20.629,contrast_sensitivity,2024.2.4,None,2025-02-03 13h44.25.993894 -0500,
0.1,1,1,63,3,1,left,0.7203439159784466,None,1,3,63,4,58.09549450001214,,,,58.08886604208965,58.68500566703733,59.42056700005196,left,0.7203439159784466,None,demo,001,2025-02-03_13h44.20.629,contrast_sensitivity,2024.2.4,None,2025-02-03 13h44.25.993894 -0500,
0.0001,-1,1,64,4,1,left,0.047899457975290716,None,1,4,64,7,59.43529600009788,,,,59.42261775000952,60.017420625081286,60.06876783305779,left,0.047899457975290716,None,demo,001,2025-02-03_13h44.20.629,contrast_sensitivity,2024.2.4,None,2025-02-03 13h44.25.993894 -0500,
1.0,1,4,65,5,1,right,0.15047383296769112,None,1,5,65,29,60.0741534170229,,,,60.07005375006702,60.655866542016156,60.81972745805979,right,0.15047383296769112,None,demo,001,2025-02-03_13h44.20.629,contrast_sensitivity,2024.2.4,None,2025-02-03 13h44.25.993894 -0500,
0.05,1,1,66,6,1,right,0.023953291005454957,None,1,6,66,3,60.82709174999036,,,,60.82188483304344,61.406619083019905,61.43687395809684,right,0.023953291005454957,None,demo,001,2025-02-03_13h44.20.629,contrast_sensitivity,2024.2.4,None,2025-02-03 13h44.25.993894 -0500,
1e-08,1,2,67,7,1,right,0.12624820799101144,None,1,7,67,12,61.44572295807302,,,,61.43920470809098,62.035104500013404,62.171170250047,right,0.12624820799101144,None,demo,001,2025-02-03_13h44.20.629,contrast_sensitivity,2024.2.4,None,2025-02-03 13h44.25.993894 -0500,
0.05,-1,16,68,8,1,left,0.09781008295249194,None,1,8,68,57,62.178923917002976,,,,62.17359275009949,62.768524083076045,62.87109120807145,left,0.09781008295249194,None,demo,001,2025-02-03_13h44.20.629,contrast_sensitivity,2024.2.4,None,2025-02-03 13h44.25.993894 -0500,
0.05,1,4,69,9,1,right,1.050066833035089,None,1,9,69,27,62.880252167000435,,,,62.87347204203252,63.46825179201551,64.52030179207213,right,1.050066833035089,None,demo,001,2025-02-03_13h44.20.629,contrast_sensitivity,2024.2.4,None,2025-02-03 13h44.25.993894 -0500,
0.05,1,2,70,10,1,right,0.0007885419763624668,None,1,10,70,15,64.52756350010168,,,,64.52225983305834,65.11844020802528,65.12541041709483,right,0.0007885419763624668,None,demo,001,2025-02-03_13h44.20.629,contrast_sensitivity,2024.2.4,None,2025-02-03 13h44.25.993894 -0500,
0.01,1,8,71,11,1,right,0.06490670796483755,None,1,11,71,38,65.13482366700191,,,,65.12785416701809,65.72334937506821,65.79005487507675,right,0.06490670796483755,None,demo,001,2025-02-03_13h44.20.629,contrast_sensitivity,2024.2.4,None,2025-02-03 13h44.25.993894 -0500,
0.0001,-1,16,72,12,1,left,0.20736541610676795,None,1,12,72,55,65.80138608301058,,,,65.79130383301526,66.40187612501904,66.62038533308078,left,0.20736541610676795,None,demo,001,2025-02-03_13h44.20.629,contrast_sensitivity,2024.2.4,None,2025-02-03 13h44.25.993894 -0500,
0.01,1,2,73,13,1,right,1.0948239989811555,None,1,13,73,14,66.62598945805803,,,,66.62213616701774,67.21835325006396,68.31918004201725,right,1.0948239989811555,None,demo,001,2025-02-03_13h44.20.629,contrast_sensitivity,2024.2.4,None,2025-02-03 13h44.25.993894 -0500,
1e-08,-1,1,74,14,1,left,0.22360254102386534,None,1,14,74,6,68.32437358307652,,,,68.32058616704307,68.91756645799614,69.14436983305495,left,0.22360254102386534,None,demo,001,2025-02-03_13h44.20.629,contrast_sensitivity,2024.2.4,None,2025-02-03 13h44.25.993894 -0500,
1.0,-1,4,75,15,1,left,0.005313208093866706,None,1,15,75,35,69.1504624580266,,,,69.14570129208732,69.73902354203165,69.75350675010122,left,0.005313208093866706,None,demo,001,2025-02-03_13h44.20.629,contrast_sensitivity,2024.2.4,None,2025-02-03 13h44.25.993894 -0500,
1.0,-1,2,76,16,1,left,0.059375748969614506,None,1,16,76,23,69.76106158306357,,,,69.75584708305541,70.3517663750099,70.42126787500456,left,0.059375748969614506,None,demo,001,2025-02-03_13h44.20.629,contrast_sensitivity,2024.2.4,None,2025-02-03 13h44.25.993894 -0500,
1e-08,-1,2,77,17,1,left,0.5875499579124153,None,1,17,77,18,70.42918558302335,,,,70.42359762499109,71.01852595806122,71.60782116709743,left,0.5875499579124153,None,demo,001,2025-02-03_13h44.20.629,contrast_sensitivity,2024.2.4,None,2025-02-03 13h44.25.993894 -0500,
0.05,-1,4,78,18,1,left,0.09440775006078184,None,1,18,78,33,71.61733766703401,,,,71.61004570801742,72.20377200003713,72.30242520803586,left,0.09440775006078184,None,demo,001,2025-02-03_13h44.20.629,contrast_sensitivity,2024.2.4,None,2025-02-03 13h44.25.993894 -0500,
0.1,-1,8,79,19,1,left,0.061334916041232646,None,1,19,79,46,72.30788241699338,,,,72.3037089999998,72.90271895809565,72.97065775003284,left,0.061334916041232646,None,demo,001,2025-02-03_13h44.20.629,contrast_sensitivity,2024.2.4,None,2025-02-03 13h44.25.993894 -0500,
0.05,1,8,80,20,1,right,0.06199566600844264,None,1,20,80,39,72.98536233301274,,,,72.9726398329949,73.569090917008,73.6360452080844,right,0.06199566600844264,None,demo,001,2025-02-03_13h44.20.629,contrast_sensitivity,2024.2.4,None,2025-02-03 13h44.25.993894 -0500,
0.1,-1,2,81,21,1,left,0.037302833050489426,None,1,21,81,22,73.64202704199124,,,,73.6375134580303,74.23478104209062,74.27371158299502,left,0.037302833050489426,None,demo,001,2025-02-03_13h44.20.629,contrast_sensitivity,2024.2.4,None,2025-02-03 13h44.25.993894 -0500,
0.0001,1,2,82,22,1,right,0.9311420409940183,None,1,22,82,13,74.28465916705318,,,,74.27549254207406,74.87306062504649,75.80761087499559,right,0.9311420409940183,None,demo,001,2025-02-03_13h44.20.629,contrast_sensitivity,2024.2.4,None,2025-02-03 13h44.25.993894 -0500,
0.05,-1,1,83,23,1,left,0.7475633330177516,None,1,23,83,9,75.81834187509958,,,,75.80980158306193,76.400609958102,77.15475616708864,left,0.7475633330177516,None,demo,001,2025-02-03_13h44.20.629,contrast_sensitivity,2024.2.4,None,2025-02-03 13h44.25.993894 -0500,
0.05,-1,2,84,24,1,right,0.7312565830070525,None,1,24,84,21,77.1617792500183,,,,77.15745804202743,77.75169762503356,78.48774533299729,right,0.7312565830070525,None,demo,001,2025-02-03_13h44.20.629,contrast_sensitivity,2024.2.4,None,2025-02-03 13h44.25.993894 -0500,
1.0,1,16,85,25,1,right,0.8364930000388995,None,1,25,85,53,78.49607066705357,,,,78.48986487509683,79.08539220807143,79.9242170000216,right,0.8364930000388995,None,demo,001,2025-02-03_13h44.20.629,contrast_sensitivity,2024.2.4,None,2025-02-03 13h44.25.993894 -0500,
1e-08,-1,8,86,26,1,left,0.10470608295872808,None,1,26,86,42,79.93528670805972,,,,79.92641175002791,80.52220916701481,80.63707129203249,left,0.10470608295872808,None,demo,001,2025-02-03_13h44.20.629,contrast_sensitivity,2024.2.4,None,2025-02-03 13h44.25.993894 -0500,
1.0,-1,8,87,27,1,left,0.7340772909810767,None,1,27,87,47,80.64680158300325,,,,80.63923491700552,81.23482029209845,81.97573720803484,left,0.7340772909810767,None,demo,001,2025-02-03_13h44.20.629,contrast_sensitivity,2024.2.4,None,2025-02-03 13h44.25.993894 -0500,
0.01,-1,16,88,28,1,left,0.6122499580960721,None,1,28,88,56,81.98389000003226,,,,81.97793741698842,82.56808587501291,83.18763525004033,left,0.6122499580960721,None,demo,001,2025-02-03_13h44.20.629,contrast_sensitivity,2024.2.4,None,2025-02-03 13h44.25.993894 -0500,
1e-08,1,1,89,29,1,left,0.1464129170635715,None,1,29,89,0,83.20159341709223,,,,83.18988437508233,83.80237500008661,83.95775450009387,left,0.1464129170635715,None,demo,001,2025-02-03_13h44.20.629,contrast_sensitivity,2024.2.4,None,2025-02-03 13h44.25.993894 -0500,
1.0,1,2,90,30,1,right,0.20274174900259823,None,1,30,90,17,83.96830558299553,,,,83.95950795803219,84.5540297080297,84.76890150003601,right,0.20274174900259823,None,demo,001,2025-02-03_13h44.20.629,contrast_sensitivity,2024.2.4,None,2025-02-03 13h44.25.993894 -0500,
0.1,-1,1,91,31,1,left,0.14553341700229794,None,1,31,91,10,84.7743832920678,,,,84.77023120806552,85.35625291708857,85.50382470805198,left,0.14553341700229794,None,demo,001,2025-02-03_13h44.20.629,contrast_sensitivity,2024.2.4,None,2025-02-03 13h44.25.993894 -0500,
0.01,1,1,92,32,1,left,0.6621570409042761,None,1,32,92,2,85.518619999988,,,,85.50582008308265,86.10175600007642,86.77040625002701,left,0.6621570409042761,None,demo,001,2025-02-03_13h44.20.629,contrast_sensitivity,2024.2.4,None,2025-02-03 13h44.25.993894 -0500,
0.1,1,8,93,33,1,right,0.4733010829659179,None,1,33,93,40,86.77792254206724,,,,86.77326916705351,87.36843216698617,87.85370329208672,right,0.4733010829659179,None,demo,001,2025-02-03_13h44.20.629,contrast_sensitivity,2024.2.4,None,2025-02-03 13h44.25.993894 -0500,
1.0,1,8,94,34,1,right,0.4821433750912547,None,1,34,94,41,87.86110020801425,,,,87.85612550005317,88.45158450002782,88.93763433303684,right,0.4821433750912547,None,demo,001,2025-02-03_13h44.20.629,contrast_sensitivity,2024.2.4,None,2025-02-03 13h44.25.993894 -0500,
1e-08,-1,4,95,35,1,right,0.7145192499738187,None,1,35,95,30,88.94742595800199,,,,88.93996841704939,89.53515783301555,90.2544656250393,right,0.7145192499738187,None,demo,001,2025-02-03_13h44.20.629,contrast_sensitivity,2024.2.4,None,2025-02-03 13h44.25.993894 -0500,
1.0,-1,16,96,36,1,left,0.497796667041257,None,1,36,96,59,90.26336950005498,,,,90.25660137506202,90.85183370800223,91.35363245802,left,0.497796667041257,None,demo,001,2025-02-03_13h44.20.629,contrast_sensitivity,2024.2.4,None,2025-02-03 13h44.25.993894 -0500,
0.01,1,16,97,37,1,right,0.29472908296156675,None,1,37,97,50,91.36294712498784,,,,91.3557790000923,91.9688680000836,92.26946029206738,right,0.29472908296156675,None,demo,001,2025-02-03_13h44.20.629,contrast_sensitivity,2024.2.4,None,2025-02-03 13h44.25.993894 -0500,
0.0001,1,16,98,38,1,left,0.3397215419681743,None,1,38,98,49,92.27623879199382,,,,92.27126425004099,92.86782629205845,93.2191800000146,left,0.3397215419681743,None,demo,001,2025-02-03_13h44.20.629,contrast_sensitivity,2024.2.4,None,2025-02-03 13h44.25.993894 -0500,
0.01,-1,1,99,39,1,left,0.2388990829931572,None,1,39,99,8,93.22525458305608,,,,93.22062804200687,93.8186643330846,94.06919395807199,left,0.2388990829931572,None,demo,001,2025-02-03_13h44.20.629,contrast_sensitivity,2024.2.4,None,2025-02-03 13h44.25.993894 -0500,
0.0001,1,1,100,40,1,left,0.35817266593221575,None,1,40,100,1,94.07496679201722,,,,94.07036883302499,94.65639404207468,95.02513754204847,left,0.35817266593221575,None,demo,001,2025-02-03_13h44.20.629,contrast_sensitivity,2024.2.4,None,2025-02-03 13h44.25.993894 -0500,
0.01,-1,2,101,41,1,left,0.2191261660773307,None,1,41,101,20,95.03500120807439,,,,95.0271316251019,95.62342312501278,95.85468462505378,left,0.2191261660773307,None,demo,001,2025-02-03_13h44.20.629,contrast_sensitivity,2024.2.4,None,2025-02-03 13h44.25.993894 -0500,
0.1,1,2,102,42,1,right,0.35183266596868634,None,1,42,102,16,95.86331412498839,,,,95.85717941704206,96.45171829208266,96.80848037509713,right,0.35183266596868634,None,demo,001,2025-02-03_13h44.20.629,contrast_sensitivity,2024.2.4,None,2025-02-03 13h44.25.993894 -0500,
0.0001,-1,8,103,43,1,left,0.1860875830752775,None,1,43,103,43,96.81729404209182,,,,96.81040670804214,97.40640454203822,97.60419800004456,left,0.1860875830752775,None,demo,001,2025-02-03_13h44.20.629,contrast_sensitivity,2024.2.4,None,2025-02-03 13h44.25.993894 -0500,
0.05,1,16,104,44,1,right,0.11175929103046656,None,1,44,104,51,97.61250883305911,,,,97.60662395809777,98.20188270800281,98.32055195805151,right,0.11175929103046656,None,demo,001,2025-02-03_13h44.20.629,contrast_sensitivity,2024.2.4,None,2025-02-03 13h44.25.993894 -0500,
0.1,-1,4,105,45,1,left,0.19074512494262308,None,1,45,105,34,98.33493962499779,,,,98.32284829206765,98.91870379203465,99.12091454199981,left,0.19074512494262308,None,demo,001,2025-02-03_13h44.20.629,contrast_sensitivity,2024.2.4,None,2025-02-03 13h44.25.993894 -0500,
1e-08,1,4,106,46,1,right,0.3261810829862952,None,1,46,106,24,99.13509245798923,,,,99.12302908301353,99.71925349999219,100.05465779209044,right,0.3261810829862952,None,demo,001,2025-02-03_13h44.20.629,contrast_sensitivity,2024.2.4,None,2025-02-03 13h44.25.993894 -0500,
0.01,1,4,107,47,1,right,0.15466795803513378,None,1,47,107,26,100.06833025009837,,,,100.05696279206313,100.65073516708799,100.81884741701651,right,0.15466795803513378,None,demo,001,2025-02-03_13h44.20.629,contrast_sensitivity,2024.2.4,None,2025-02-03 13h44.25.993894 -0500,
1e-08,-1,16,108,48,1,right,0.14390958310104907,None,1,48,108,54,100.82455183309503,,,,100.82007891708054,101.41746879206039,101.56868637504522,right,0.14390958310104907,None,demo,001,2025-02-03_13h44.20.629,contrast_sensitivity,2024.2.4,None,2025-02-03 13h44.25.993894 -0500,
0.0001,-1,2,109,49,1,left,0.295124749885872,None,1,49,109,19,101.57427425007336,,,,101.56995733303484,102.15928420808632,102.4710297920974,left,0.295124749885872,None,demo,001,2025-02-03_13h44.20.629,contrast_sensitivity,2024.2.4,None,2025-02-03 13h44.25.993894 -0500,
0.0001,1,4,110,50,1,right,0.20178920798934996,None,1,50,110,25,102.48515304201283,,,,102.47326425008941,103.06855416705366,103.27620516705792,right,0.20178920798934996,None,demo,001,2025-02-03_13h44.20.629,contrast_sensitivity,2024.2.4,None,2025-02-03 13h44.25.993894 -0500,
1e-08,1,16,111,51,1,right,0.3991492909844965,None,1,51,111,48,103.28414733300451,,,,103.27808604203165,103.86822629207745,104.27122212504037,right,0.3991492909844965,None,demo,001,2025-02-03_13h44.20.629,contrast_sensitivity,2024.2.4,None,2025-02-03 13h44.25.993894 -0500,
0.01,-1,8,112,52,1,left,0.13118487398605794,None,1,52,112,44,104.27967020799406,,,,104.27341820800211,104.88515525008552,105.0205194579903,left,0.13118487398605794,None,demo,001,2025-02-03_13h44.20.629,contrast_sensitivity,2024.2.4,None,2025-02-03 13h44.25.993894 -0500,
1.0,1,1,113,53,1,right,0.23166345804929733,None,1,53,113,5,105.02761383308098,,,,105.02283350005746,105.61766837502364,105.85474070801865,right,0.23166345804929733,None,demo,001,2025-02-03_13h44.20.629,contrast_sensitivity,2024.2.4,None,2025-02-03 13h44.25.993894 -0500,
0.05,-1,8,114,54,1,left,0.2976406660163775,None,1,54,114,45,105.86838591704145,,,,105.85682108299807,106.45166745805182,106.75395541707985,left,0.2976406660163775,None,demo,001,2025-02-03_13h44.20.629,contrast_sensitivity,2024.2.4,None,2025-02-03 13h44.25.993894 -0500,
1e-08,1,8,115,55,1,left,0.17514095804654062,None,1,55,115,36,106.76277637504973,,,,106.75644495803863,107.35212225001305,107.53715441701934,left,0.17514095804654062,None,demo,001,2025-02-03_13h44.20.629,contrast_sensitivity,2024.2.4,None,2025-02-03 13h44.25.993894 -0500,
1.0,-1,1,116,56,1,left,0.13287216599565,None,1,56,116,11,107.54626404203009,,,,107.53944154200144,108.13538120803423,108.27140591701027,left,0.13287216599565,None,demo,001,2025-02-03_13h44.20.629,contrast_sensitivity,2024.2.4,None,2025-02-03 13h44.25.993894 -0500,
0.0001,-1,4,117,57,1,left,0.1365728749660775,None,1,57,117,31,108.27985704201274,,,,108.2736002500169,108.86762850009836,109.00602712505497,left,0.1365728749660775,None,demo,001,2025-02-03_13h44.20.629,contrast_sensitivity,2024.2.4,None,2025-02-03 13h44.25.993894 -0500,
0.1,1,4,118,58,1,right,0.14233420800883323,None,1,58,118,28,109.01746941707097,,,,109.00735958304722,109.60406445804983,109.75415425002575,right,0.14233420800883323,None,demo,001,2025-02-03_13h44.20.629,contrast_sensitivity,2024.2.4,None,2025-02-03 13h44.25.993894 -0500,
0.1,1,16,119,59,1,right,0.03845633298624307,None,1,59,119,52,109.76283541705925,,,,109.75625366705935,110.35175075009465,110.40354366705287,right,0.03845633298624307,None,demo,001,2025-02-03_13h44.20.629,contrast_sensitivity,2024.2.4,None,2025-02-03 13h44.25.993894 -0500,
0.01,1,1,120,0,2,right,0.25981987500563264,None,2,0,120,2,110.41157637501601,,,,110.40583629207686,111.001510333037,111.27083541708998,right,0.25981987500563264,None,demo,001,2025-02-03_13h44.20.629,contrast_sensitivity,2024.2.4,None,2025-02-03 13h44.25.993894 -0500,
0.0001,-1,4,121,1,2,left,0.1537412489997223,None,2,1,121,31,111.27876154205296,,,,111.27317525004037,111.86838729202282,112.02417545800563,left,0.1537412489997223,None,demo,001,2025-02-03_13h44.20.629,contrast_sensitivity,2024.2.4,None,2025-02-03 13h44.25.993894 -0500,
1e-08,1,8,122,2,2,left,0.11149666702840477,None,2,2,122,36,112.03475858306047,,,,112.02659029199276,112.62364958308171,112.73679700004868,left,0.11149666702840477,None,demo,001,2025-02-03_13h44.20.629,contrast_sensitivity,2024.2.4,None,2025-02-03 13h44.25.993894 -0500,
0.05,-1,1,123,3,2,left,0.017095332965254784,None,2,3,123,9,112.74600250006188,,,,112.73853950004559,113.3350170000922,113.35866700008046,left,0.017095332965254784,None,demo,001,2025-02-03_13h44.20.629,contrast_sensitivity,2024.2.4,None,2025-02-03 13h44.25.993894 -0500,
0.1,1,8,124,4,2,right,0.058942792005836964,None,2,4,124,40,113.36801462504081,,,,113.36105383303948,113.95145191706251,114.02094395807944,right,0.058942792005836964,None,demo,001,2025-02-03_13h44.20.629,contrast_sensitivity,2024.2.4,None,2025-02-03 13h44.25.993894 -0500,
0.01,-1,16,125,5,2,left,0.21067279193084687,None,2,5,125,56,114.03519070800394,,,,114.02312391705345,114.61842783307657,114.83753350004554,left,0.21067279193084687,None,demo,001,2025-02-03_13h44.20.629,contrast_sensitivity,2024.2.4,None,2025-02-03 13h44.25.993894 -0500,
1.0,-1,4,126,6,2,left,0.13898745807819068,None,2,6,126,35,114.84657170809805,,,,114.83982829202432,115.43508508300874,115.58777837501839,left,0.13898745807819068,None,demo,001,2025-02-03_13h44.20.629,contrast_sensitivity,2024.2.4,None,2025-02-03 13h44.25.993894 -0500,
1e-08,1,2,127,7,2,left,0.5453997489530593,None,2,7,127,12,115.59648325003218,,,,115.58997275005095,116.18470045807771,116.73554633301683,left,0.5453997489530593,None,demo,001,2025-02-03_13h44.20.629,contrast_sensitivity,2024.2.4,None,2025-02-03 13h44.25.993894 -0500,
0.05,-1,4,128,8,2,left,0.013026957982219756,None,2,8,128,33,116.7409978749929,,,,116.73690025007818,117.33401650004089,117.3522290000692,left,0.013026957982219756,None,demo,001,2025-02-03_13h44.20.629,contrast_sensitivity,2024.2.4,None,2025-02-03 13h44.25.993894 -0500,
0.1,1,16,129,9,2,right,0.03148008300922811,None,2,9,129,52,117.3578797080554,,,,117.35373912507202,117.9395583330188,117.97412662499119,right,0.03148008300922811,None,demo,001,2025-02-03_13h44.20.629,contrast_sensitivity,2024.2.4,None,2025-02-03 13h44.25.993894 -0500,
0.0001,1,1,130,10,2,right,0.03905562497675419,None,2,10,130,1,117.98486170801334,,,,117.97626483300701,118.57309470803011,118.62041883298662,right,0.03905562497675419,None,demo,001,2025-02-03_13h44.20.629,contrast_sensitivity,2024.2.4,None,2025-02-03 13h44.25.993894 -0500,
1.0,-1,16,131,11,2,left,0.35331266606226563,None,2,11,131,59,118.628423999995,,,,118.62271341704763,119.21863750007469,119.58720358309802,left,0.35331266606226563,None,demo,001,2025-02-03_13h44.20.629,contrast_sensitivity,2024.2.4,None,2025-02-03 13h44.25.993894 -0500,
1e-08,1,1,132,12,2,left,1.1077803330263123,None,2,12,132,0,119.59552508301567,,,,119.58925008308142,120.18613475002348,121.30387237505056,left,1.1077803330263123,None,demo,001,2025-02-03_13h44.20.629,contrast_sensitivity,2024.2.4,None,2025-02-03 13h44.25.993894 -0500,
0.01,1,4,133,13,2,right,0.2942760830046609,None,2,13,133,26,121.31032341707032,,,,121.30555558309425,121.90172204200644,122.20424845803063,right,0.2942760830046609,None,demo,001,2025-02-03_13h44.20.629,contrast_sensitivity,2024.2.4,None,2025-02-03 13h44.25.993894 -0500,
1e-08,-1,4,134,14,2,right,1.0710714580491185,None,2,14,134,30,122.21244254207704,,,,122.20643183309585,122.80176200007554,123.88694841705728,right,1.0710714580491185,None,demo,001,2025-02-03_13h44.20.629,contrast_sensitivity,2024.2.4,None,2025-02-03 13h44.25.993894 -0500,
0.1,-1,2,135,15,2,left,0.18168104090727866,None,2,15,135,22,123.89588545809966,,,,123.88916695804801,124.48516733304132,124.6706087080529,left,0.18168104090727866,None,demo,001,2025-02-03_13h44.20.629,contrast_sensitivity,2024.2.4,None,2025-02-03 13h44.25.993894 -0500,
1e-08,-1,1,136,16,2,left,0.6061392910778522,None,2,16,136,6,124.68528641702142,,,,124.67249795806129,125.26767541700974,125.88662804209162,left,0.6061392910778522,None,demo,001,2025-02-03_13h44.20.629,contrast_sensitivity,2024.2.4,None,2025-02-03 13h44.25.993894 -0500,
0.05,-1,8,137,17,2,left,0.3314850409515202,None,2,17,137,45,125.89540129201487,,,,125.88931012502871,126.48445204203017,126.82052958302666,left,0.3314850409515202,None,demo,001,2025-02-03_13h44.20.629,contrast_sensitivity,2024.2.4,None,2025-02-03 13h44.25.993894 -0500,
0.01,1,2,138,18,2,right,0.46552354097366333,None,2,18,138,14,126.82707204204053,,,,126.82263220800087,127.41925783304032,127.88702766702045,right,0.46552354097366333,None,demo,001,2025-02-03_13h44.20.629,contrast_sensitivity,2024.2.4,None,2025-02-03 13h44.25.993894 -0500,
0.1,1,2,139,19,2,right,0.3290380829712376,None,2,19,139,16,127.89562391699292,,,,127.88894958305173,128.48968741705175,128.8270267500775,right,0.3290380829712376,None,demo,001,2025-02-03_13h44.20.629,contrast_sensitivity,2024.2.4,None,2025-02-03 13h44.25.993894 -0500,
0.1,-1,8,140,20,2,left,0.32238208304625005,None,2,20,140,46,128.8348900420824,,,,128.82852820807602,129.42351525009144,129.75333858304657,left,0.32238208304625005,None,demo,001,2025-02-03_13h44.20.629,contrast_sensitivity,2024.2.4,None,2025-02-03 13h44.25.993894 -0500,
1.0,-1,2,141,21,2,left,0.29087004205211997,None,2,21,141,23,129.76226620806847,,,,129.75548050005455,130.3518360829912,130.6543285830412,left,0.29087004205211997,None,demo,001,2025-02-03_13h44.20.629,contrast_sensitivity,2024.2.4,None,2025-02-03 13h44.25.993894 -0500,
0.01,-1,1,142,22,2,left,0.24917445797473192,None,2,22,142,8,130.66310504206922,,,,130.65675816708244,131.25159145810176,131.50444304209668,left,0.24917445797473192,None,demo,001,2025-02-03_13h44.20.629,contrast_sensitivity,2024.2.4,None,2025-02-03 13h44.25.993894 -0500,
0.0001,1,2,143,23,2,right,1.0089693740010262,None,2,23,143,13,131.5123567080591,,,,131.50675766705535,132.1016855420312,133.1204908330692,right,1.0089693740010262,None,demo,001,2025-02-03_13h44.20.629,contrast_sensitivity,2024.2.4,None,2025-02-03 13h44.25.993894 -0500,
0.1,-1,4,144,24,2,left,0.4568021249724552,None,2,24,144,34,133.12717466708273,,,,133.12228570808657,133.71781516703777,134.18703591707163,left,0.4568021249724552,None,demo,001,2025-02-03_13h44.20.629,contrast_sensitivity,2024.2.4,None,2025-02-03 13h44.25.993894 -0500,
1.0,1,1,145,25,2,right,0.3412572080269456,None,2,25,145,5,134.19457395805512,,,,134.19003512500785,134.80237079202197,135.1542139580706,right,0.3412572080269456,None,demo,001,2025-02-03_13h44.20.629,contrast_sensitivity,2024.2.4,None,2025-02-03 13h44.25.993894 -0500,
0.05,1,8,146,26,2,right,0.23302650009281933,None,2,26,146,39,135.1685109169921,,,,135.15629700000864,135.75854037504178,136.00359512504656,right,0.23302650009281933,None,demo,001,2025-02-03_13h44.20.629,contrast_sensitivity,2024.2.4,None,2025-02-03 13h44.25.993894 -0500,
0.1,-1,16,147,27,2,left,0.1725987499812618,None,2,27,147,58,136.01253587508108,,,,136.0058678330388,136.6029661250068,136.78737654199358,left,0.1725987499812618,None,demo,001,2025-02-03_13h44.20.629,contrast_sensitivity,2024.2.4,None,2025-02-03 13h44.25.993894 -0500,
0.05,1,16,148,28,2,right,0.22419187508057803,None,2,28,148,51,136.8018907920923,,,,136.78945166699123,137.3853297920432,137.62066200003028,right,0.22419187508057803,None,demo,001,2025-02-03_13h44.20.629,contrast_sensitivity,2024.2.4,None,2025-02-03 13h44.25.993894 -0500,
0.01,-1,8,149,29,2,left,0.3608664999483153,None,2,29,149,44,137.62959595804568,,,,137.62302233302034,138.21864100010134,138.58586766698863,left,0.3608664999483153,None,demo,001,2025-02-03_13h44.20.629,contrast_sensitivity,2024.2.4,None,2025-02-03 13h44.25.993894 -0500,
0.1,1,1,150,30,2,right,0.5360696240095422,None,2,30,150,4,138.59161158301868,,,,138.58722441701684,139.18640170805156,139.73780325008556,right,0.5360696240095422,None,demo,001,2025-02-03_13h44.20.629,contrast_sensitivity,2024.2.4,None,2025-02-03 13h44.25.993894 -0500,
1.0,1,2,151,31,2,right,0.48234524903818965,None,2,31,151,17,139.75168529199436,,,,139.73928845801856,140.3351541670272,140.82049704203382,right,0.48234524903818965,None,demo,001,2025-02-03_13h44.20.629,contrast_sensitivity,2024.2.4,None,2025-02-03 13h44.25.993894 -0500,
0.05,1,2,152,32,2,right,0.37394508300349116,None,2,32,152,15,140.82670958305243,,,,140.82248320803046,141.4174925830448,141.80305487499572,right,0.37394508300349116,None,demo,001,2025-02-03_13h44.20.629,contrast_sensitivity,2024.2.4,None,2025-02-03 13h44.25.993894 -0500,
1e-08,-1,8,153,33,2,left,0.6233880000654608,None,2,33,153,42,141.80999779200647,,,,141.80508449999616,142.40204449999146,143.0373797500506,left,0.6233880000654608,None,demo,001,2025-02-03_13h44.20.629,contrast_sensitivity,2024.2.4,None,2025-02-03 13h44.25.993894 -0500,
0.05,1,1,154,34,2,right,0.2665024580201134,None,2,34,154,3,143.04604045802262,,,,143.039420666988,143.63495329208672,143.90439637505915,right,0.2665024580201134,None,demo,001,2025-02-03_13h44.20.629,contrast_sensitivity,2024.2.4,None,2025-02-03 13h44.25.993894 -0500,
1.0,1,16,155,35,2,right,0.45770391600672156,None,2,35,155,53,143.91273287509102,,,,143.906476583099,144.50167000002693,144.97008895804174,right,0.45770391600672156,None,demo,001,2025-02-03_13h44.20.629,contrast_sensitivity,2024.2.4,None,2025-02-03 13h44.25.993894 -0500,
1e-08,-1,16,156,36,2,left,0.3630634159781039,None,2,36,156,54,144.9786358330166,,,,144.97213516698685,145.56848491705023,145.93766120809596,left,0.3630634159781039,None,demo,001,2025-02-03_13h44.20.629,contrast_sensitivity,2024.2.4,None,2025-02-03 13h44.25.993894 -0500,
0.01,1,8,157,37,2,right,0.5108388329390436,None,2,37,157,38,145.9450967500452,,,,145.94004208303522,146.53850916703232,147.0529975000536,right,0.5108388329390436,None,demo,001,2025-02-03_13h44.20.629,contrast_sensitivity,2024.2.4,None,2025-02-03 13h44.25.993894 -0500,
0.01,-1,2,158,38,2,left,0.2774252080125734,None,2,38,158,20,147.05895850004163,,,,147.05437350005377,147.65104425000027,147.93778350006323,left,0.2774252080125734,None,demo,001,2025-02-03_13h44.20.629,contrast_sensitivity,2024.2.4,None,2025-02-03 13h44.25.993894 -0500,
1e-08,1,16,159,39,2,left,0.6121470829239115,None,2,39,159,48,147.9466518330155,,,,147.9399902500445,148.53515420807526,149.15374970808625,left,0.6121470829239115,None,demo,001,2025-02-03_13h44.20.629,contrast_sensitivity,2024.2.4,None,2025-02-03 13h44.25.993894 -0500,
0.05,-1,2,160,40,2,left,0.2665178329916671,None,2,40,160,21,149.16068695799913,,,,149.15564016706776,149.7507818749873,150.01999712502584,left,0.2665178329916671,None,demo,001,2025-02-03_13h44.20.629,contrast_sensitivity,2024.2.4,None,2025-02-03 13h44.25.993894 -0500,
0.0001,-1,16,161,41,2,left,0.5207758330507204,None,2,41,161,55,150.02556916698813,,,,150.02160587499384,150.61843000003137,151.1406811249908,left,0.5207758330507204,None,demo,001,2025-02-03_13h44.20.629,contrast_sensitivity,2024.2.4,None,2025-02-03 13h44.25.993894 -0500,
0.0001,-1,8,162,42,2,left,0.594848082982935,None,2,42,162,43,151.15157650003675,,,,151.14292954199482,151.73936875001527,152.33589425007813,left,0.594848082982935,None,demo,001,2025-02-03_13h44.20.629,contrast_sensitivity,2024.2.4,None,2025-02-03 13h44.25.993894 -0500,
0.01,1,16,163,43,2,right,0.40620341699104756,None,2,43,163,50,152.34222312504426,,,,152.337130083004,152.9230176670244,153.3361626249971,right,0.40620341699104756,None,demo,001,2025-02-03_13h44.20.629,contrast_sensitivity,2024.2.4,None,2025-02-03 13h44.25.993894 -0500,
0.0001,-1,1,164,44,2,left,0.4079941250383854,None,2,44,164,7,153.34313850000035,,,,153.33779720799066,153.936181667028,154.3536202920368,left,0.4079941250383854,None,demo,001,2025-02-03_13h44.20.629,contrast_sensitivity,2024.2.4,None,2025-02-03 13h44.25.993894 -0500,
1.0,1,4,165,45,2,right,0.38515545800328255,None,2,45,165,29,154.362396624987,,,,154.35554558306467,154.96901537501253,155.35820891708136,right,0.38515545800328255,None,demo,001,2025-02-03_13h44.20.629,contrast_sensitivity,2024.2.4,None,2025-02-03 13h44.25.993894 -0500,
0.05,-1,16,166,46,2,left,0.3016927910503,None,2,46,166,57,155.36814050003886,,,,155.36030154209584,155.9513955420116,156.25784908304922,left,0.3016927910503,None,demo,001,2025-02-03_13h44.20.629,contrast_sensitivity,2024.2.4,None,2025-02-03 13h44.25.993894 -0500,
1e-08,1,4,167,47,2,left,0.8153057489544153,None,2,47,167,24,156.26836758304853,,,,156.25998408300802,156.85677758301608,157.68592250009533,left,0.8153057489544153,None,demo,001,2025-02-03_13h44.20.629,contrast_sensitivity,2024.2.4,None,2025-02-03 13h44.25.993894 -0500,
0.01,-1,4,168,48,2,left,0.5929929169360548,None,2,48,168,32,157.69124125002418,,,,157.68734020809643,158.30118091707118,158.90422683302313,left,0.5929929169360548,None,demo,001,2025-02-03_13h44.20.629,contrast_sensitivity,2024.2.4,None,2025-02-03 13h44.25.993894 -0500,
0.0001,1,4,169,49,2,right,0.4720413750037551,None,2,49,169,25,158.91866158309858,,,,158.9064069170272,159.5019589170115,159.98714979202487,right,0.4720413750037551,None,demo,001,2025-02-03_13h44.20.629,contrast_sensitivity,2024.2.4,None,2025-02-03 13h44.25.993894 -0500,
0.0001,1,8,170,50,2,right,0.5059253330109641,None,2,50,170,37,159.99557470809668,,,,159.98953029199038,160.58510787505656,161.10428400000092,right,0.5059253330109641,None,demo,001,2025-02-03_13h44.20.629,contrast_sensitivity,2024.2.4,None,2025-02-03 13h44.25.993894 -0500,
0.05,1,4,171,51,2,right,0.4391334989340976,None,2,51,171,27,161.11255058308598,,,,161.1067961670924,161.70088245801162,162.15479358308949,right,0.4391334989340976,None,demo,001,2025-02-03_13h44.20.629,contrast_sensitivity,2024.2.4,None,2025-02-03 13h44.25.993894 -0500,
0.1,1,4,172,52,2,right,0.5463010830571875,None,2,52,172,28,162.16837158298586,,,,162.1574852920603,162.75166791700758,163.30452070804313,right,0.5463010830571875,None,demo,001,2025-02-03_13h44.20.629,contrast_sensitivity,2024.2.4,None,2025-02-03 13h44.25.993894 -0500,
1.0,-1,1,173,53,2,left,0.50021462503355,None,2,53,173,11,163.31350250006653,,,,163.30665616702754,163.90171008300968,164.40734245802741,left,0.50021462503355,None,demo,001,2025-02-03_13h44.20.629,contrast_sensitivity,2024.2.4,None,2025-02-03 13h44.25.993894 -0500,
0.1,-1,1,174,54,2,left,0.37812870799098164,None,2,54,174,10,164.41819329198916,,,,164.40999775007367,165.01875654200558,165.40346675005276,left,0.37812870799098164,None,demo,001,2025-02-03_13h44.20.629,contrast_sensitivity,2024.2.4,None,2025-02-03 13h44.25.993894 -0500,
1.0,1,8,175,55,2,right,0.8320607079658657,None,2,55,175,41,165.41226770798676,,,,165.40609212499112,166.00083745806478,166.83721187501214,right,0.8320607079658657,None,demo,001,2025-02-03_13h44.20.629,contrast_sensitivity,2024.2.4,None,2025-02-03 13h44.25.993894 -0500,
0.0001,1,16,176,56,2,right,0.6528979159193113,None,2,56,176,49,166.84583433310036,,,,166.83942145807669,167.4349695420824,168.09160012507346,right,0.6528979159193113,None,demo,001,2025-02-03_13h44.20.629,contrast_sensitivity,2024.2.4,None,2025-02-03 13h44.25.993894 -0500,
1e-08,-1,2,177,57,2,left,0.6936785000143573,None,2,57,177,18,168.10143475001678,,,,168.09314137499314,168.69113775005098,169.39143387507647,left,0.6936785000143573,None,demo,001,2025-02-03_13h44.20.629,contrast_sensitivity,2024.2.4,None,2025-02-03 13h44.25.993894 -0500,
0.0001,-1,2,178,58,2,left,0.2767355829710141,None,2,58,178,19,169.40147945808712,,,,169.392811958096,170.00206650001928,170.28753654204775,left,0.2767355829710141,None,demo,001,2025-02-03_13h44.20.629,contrast_sensitivity,2024.2.4,None,2025-02-03 13h44.25.993894 -0500,
1.0,-1,8,179,59,2,left,0.14156991709023714,None,2,59,179,47,170.29602650005836,,,,170.28973291709553,170.90222454199102,171.05440995807294,left,0.14156991709023714,None,demo,001,2025-02-03_13h44.20.629,contrast_sensitivity,2024.2.4,None,2025-02-03 13h44.25.993894 -0500,
1e-08,-1,8,180,0,3,left,1.508395166019909,None,3,0,180,42,171.06290254206397,,,,171.05650175001938,171.669333250029,173.18708487506956,left,1.508395166019909,None,demo,001,2025-02-03_13h44.20.629,contrast_sensitivity,2024.2.4,None,2025-02-03 13h44.25.993894 -0500,
0.1,1,1,181,1,3,right,0.4943899579811841,None,3,1,181,4,173.1959988330491,,,,173.18923266709317,173.78429291700013,174.28567262506112,right,0.4943899579811841,None,demo,001,2025-02-03_13h44.20.629,contrast_sensitivity,2024.2.4,None,2025-02-03 13h44.25.993894 -0500,
1e-08,-1,2,182,2,3,right,1.2711746250279248,None,3,2,182,18,174.29145495803095,,,,174.28731737507042,174.87354079203214,176.15343954204582,right,1.2711746250279248,None,demo,001,2025-02-03_13h44.20.629,contrast_sensitivity,2024.2.4,None,2025-02-03 13h44.25.993894 -0500,
0.05,1,4,183,3,3,right,1.0266189579851925,None,3,3,183,27,176.15947041707113,,,,176.15489333309233,176.75199395802338,177.7859898750903,right,1.0266189579851925,None,demo,001,2025-02-03_13h44.20.629,contrast_sensitivity,2024.2.4,None,2025-02-03 13h44.25.993894 -0500,
0.05,-1,8,184,4,3,left,0.3460148739395663,None,3,4,184,45,177.79168462508824,,,,177.78727441700175,178.38662929204293,178.7374477920821,left,0.3460148739395663,None,demo,001,2025-02-03_13h44.20.629,contrast_sensitivity,2024.2.4,None,2025-02-03 13h44.25.993894 -0500,
1.0,-1,2,185,5,3,left,0.37716516596265137,None,3,5,185,23,178.74629970802926,,,,178.73972462501843,179.33541483303998,179.71944975003134,left,0.37716516596265137,None,demo,001,2025-02-03_13h44.20.629,contrast_sensitivity,2024.2.4,None,2025-02-03 13h44.25.993894 -0500,
1.0,-1,8,186,6,3,left,0.8480745409615338,None,3,6,186,47,179.72464191704057,,,,179.72027450008318,180.3184800830204,181.16931016708259,left,0.8480745409615338,None,demo,001,2025-02-03_13h44.20.629,contrast_sensitivity,2024.2.4,None,2025-02-03 13h44.25.993894 -0500,
0.1,-1,4,187,7,3,left,0.14680416695773602,None,3,7,187,34,181.1745778330369,,,,181.17059583310038,181.76771004206967,181.91897966701072,left,0.14680416695773602,None,demo,001,2025-02-03_13h44.20.629,contrast_sensitivity,2024.2.4,None,2025-02-03 13h44.25.993894 -0500,
0.0001,1,1,188,8,3,right,1.2566690830281004,None,3,8,188,1,181.9247430000687,,,,181.92048816708848,182.50685779203195,183.77023891708814,right,1.2566690830281004,None,demo,001,2025-02-03_13h44.20.629,contrast_sensitivity,2024.2.4,None,2025-02-03 13h44.25.993894 -0500,
0.0001,1,8,189,9,3,right,0.27540333289653063,None,3,9,189,37,183.77803245803807,,,,183.772553042043,184.3860669170972,184.6709747920977,right,0.27540333289653063,None,demo,001,2025-02-03_13h44.20.629,contrast_sensitivity,2024.2.4,None,2025-02-03 13h44.25.993894 -0500,
0.01,-1,8,190,10,3,left,0.45156758301891387,None,3,10,190,44,184.67937008303124,,,,184.67339875001926,185.26884666702244,185.72424116707407,left,0.45156758301891387,None,demo,001,2025-02-03_13h44.20.629,contrast_sensitivity,2024.2.4,None,2025-02-03 13h44.25.993894 -0500,
0.05,1,1,191,11,3,right,0.45471370802260935,None,3,11,191,3,185.73472704202868,,,,185.72689604200423,186.33568312507123,186.80253333307337,right,0.45471370802260935,None,demo,001,2025-02-03_13h44.20.629,contrast_sensitivity,2024.2.4,None,2025-02-03 13h44.25.993894 -0500,
0.0001,-1,8,192,12,3,left,0.47598804195877165,None,3,12,192,43,186.80796254205052,,,,186.80351441702805,187.38958295807242,187.87085950002074,left,0.47598804195877165,None,demo,001,2025-02-03_13h44.20.629,contrast_sensitivity,2024.2.4,None,2025-02-03 13h44.25.993894 -0500,
0.1,-1,1,193,13,3,left,1.264945957926102,None,3,13,193,10,187.87805295805447,,,,187.87303804198746,188.46934770804364,189.73855562508106,left,1.264945957926102,None,demo,001,2025-02-03_13h44.20.629,contrast_sensitivity,2024.2.4,None,2025-02-03 13h44.25.993894 -0500,
0.01,-1,4,194,14,3,left,0.687953915912658,None,3,14,194,32,189.75074745807797,,,,189.73996116709895,190.33528683299664,191.03682120807935,left,0.687953915912658,None,demo,001,2025-02-03_13h44.20.629,contrast_sensitivity,2024.2.4,None,2025-02-03 13h44.25.993894 -0500,
1e-08,1,16,195,15,3,left,2.031201874022372,None,3,15,195,48,191.04524683300406,,,,191.03922341705766,191.6350647920044,193.67037058307324,left,2.031201874022372,None,demo,001,2025-02-03_13h44.20.629,contrast_sensitivity,2024.2.4,None,2025-02-03 13h44.25.993894 -0500,
1.0,-1,4,196,16,3,left,0.11859191604889929,None,3,16,196,35,193.6784869170515,,,,193.672488583019,194.2856087500695,194.40866025001742,left,0.11859191604889929,None,demo,001,2025-02-03_13h44.20.629,contrast_sensitivity,2024.2.4,None,2025-02-03 13h44.25.993894 -0500,
1.0,1,2,197,17,3,right,0.1059098329860717,None,3,17,197,17,194.41823387506884,,,,194.4109212080948,195.00634012499359,195.12128779198974,right,0.1059098329860717,None,demo,001,2025-02-03_13h44.20.629,contrast_sensitivity,2024.2.4,None,2025-02-03 13h44.25.993894 -0500,
0.01,1,2,198,18,3,right,0.7273013330996037,None,3,18,198,14,195.13006070803385,,,,195.12331329204608,195.71809924999252,196.45391283300705,right,0.7273013330996037,None,demo,001,2025-02-03_13h44.20.629,contrast_sensitivity,2024.2.4,None,2025-02-03 13h44.25.993894 -0500,
0.05,1,8,199,19,3,right,1.431328082922846,None,3,19,199,39,196.46130829199683,,,,196.45589570805896,197.05083145806566,198.48792708304245,right,1.431328082922846,None,demo,001,2025-02-03_13h44.20.629,contrast_sensitivity,2024.2.4,None,2025-02-03 13h44.25.993894 -0500,
0.05,1,2,200,20,3,right,0.15510062500834465,None,3,20,200,15,198.4962806670228,,,,198.48956987506244,199.08499662508257,199.25374658301007,right,0.15510062500834465,None,demo,001,2025-02-03_13h44.20.629,contrast_sensitivity,2024.2.4,None,2025-02-03 13h44.25.993894 -0500,
1.0,1,1,201,21,3,right,0.4080913329962641,None,3,21,201,5,199.26274120807648,,,,199.25617808301467,199.8562034170609,200.27030195808038,right,0.4080913329962641,None,demo,001,2025-02-03_13h44.20.629,contrast_sensitivity,2024.2.4,None,2025-02-03 13h44.25.993894 -0500,
0.0001,-1,16,202,22,3,left,0.37087379093281925,None,3,22,202,55,200.27787800005171,,,,200.27257587504573,200.8681585000595,201.2410699580796,left,0.37087379093281925,None,demo,001,2025-02-03_13h44.20.629,contrast_sensitivity,2024.2.4,None,2025-02-03 13h44.25.993894 -0500,
0.1,1,8,203,23,3,right,0.44039166590664536,None,3,23,203,40,201.25152300007176,,,,201.24321520805825,201.83969445805997,202.2871780830901,right,0.44039166590664536,None,demo,001,2025-02-03_13h44.20.629,contrast_sensitivity,2024.2.4,None,2025-02-03 13h44.25.993894 -0500,
1.0,1,8,204,24,3,left,2.3077144579729065,None,3,24,204,41,202.2944257920608,,,,202.28952170803677,202.88522108306643,205.20250662509352,left,2.3077144579729065,None,demo,001,2025-02-03_13h44.20.629,contrast_sensitivity,2024.2.4,None,2025-02-03 13h44.25.993894 -0500,
0.01,-1,2,205,25,3,left,0.5321422079578042,None,3,25,205,20,205.20865020807832,,,,205.20410941704176,205.80082437500823,206.3380618330557,left,0.5321422079578042,None,demo,001,2025-02-03_13h44.20.629,contrast_sensitivity,2024.2.4,None,2025-02-03 13h44.25.993894 -0500,
0.05,1,16,206,26,3,right,0.6098819159669802,None,3,26,206,51,206.34805025008973,,,,206.3401581250364,206.9360138750635,207.5536555830622,right,0.6098819159669802,None,demo,001,2025-02-03_13h44.20.629,contrast_sensitivity,2024.2.4,None,2025-02-03 13h44.25.993894 -0500,
1e-08,1,1,207,27,3,left,0.3301889579743147,None,3,27,207,0,207.56303220801055,,,,207.55577983299736,208.15075391705614,208.4872337920824,left,0.3301889579743147,None,demo,001,2025-02-03_13h44.20.629,contrast_sensitivity,2024.2.4,None,2025-02-03 13h44.25.993894 -0500,
1.0,1,16,208,28,3,right,0.3299574159318581,None,3,28,208,53,208.5017134170048,,,,208.4886295000324,209.10196583298966,209.43795312498696,right,0.3299574159318581,None,demo,001,2025-02-03_13h44.20.629,contrast_sensitivity,2024.2.4,None,2025-02-03 13h44.25.993894 -0500,
0.0001,1,4,209,29,3,left,0.4088383329799399,None,3,29,209,25,209.44693754205946,,,,209.44026379205752,210.03516087506432,210.45339775003958,left,0.4088383329799399,None,demo,001,2025-02-03_13h44.20.629,contrast_sensitivity,2024.2.4,None,2025-02-03 13h44.25.993894 -0500,
1e-08,1,2,210,30,3,right,0.6664069169200957,None,3,30,210,12,210.46071754209697,,,,210.45547379204072,211.0523647920927,211.72436312504578,right,0.6664069169200957,None,demo,001,2025-02-03_13h44.20.629,contrast_sensitivity,2024.2.4,None,2025-02-03 13h44.25.993894 -0500,
0.0001,-1,1,211,31,3,left,0.3342365000862628,None,3,31,211,7,211.73476391704753,,,,211.72684100002516,212.32255325000733,212.6712537080748,left,0.3342365000862628,None,demo,001,2025-02-03_13h44.20.629,contrast_sensitivity,2024.2.4,None,2025-02-03 13h44.25.993894 -0500,
0.1,1,4,212,32,3,right,0.40658666694071144,None,3,32,212,28,212.68008966709021,,,,212.67374187509995,213.26815716701094,213.68605658307206,right,0.40658666694071144,None,demo,001,2025-02-03_13h44.20.629,contrast_sensitivity,2024.2.4,None,2025-02-03 13h44.25.993894 -0500,
0.05,-1,1,213,33,3,left,0.4026220830855891,None,3,33,213,9,213.69141141709406,,,,213.6875705420971,214.2841680420097,214.69156800000928,left,0.4026220830855891,None,demo,001,2025-02-03_13h44.20.629,contrast_sensitivity,2024.2.4,None,2025-02-03 13h44.25.993894 -0500,
1.0,-1,1,214,34,3,left,0.31116683303844184,None,3,34,214,11,214.70143733301666,,,,214.69367816706654,215.28954791708384,215.60331158305053,left,0.31116683303844184,None,demo,001,2025-02-03_13h44.20.629,contrast_sensitivity,2024.2.4,None,2025-02-03 13h44.25.993894 -0500,
0.1,1,16,215,35,3,right,1.265762290917337,None,3,35,215,52,215.60895454208367,,,,215.60451254202053,216.20190466707572,217.47321112500504,right,1.265762290917337,None,demo,001,2025-02-03_13h44.20.629,contrast_sensitivity,2024.2.4,None,2025-02-03 13h44.25.993894 -0500,
1e-08,-1,4,216,36,3,right,1.8515234580263495,None,3,36,216,30,217.48409333301242,,,,217.47481266700197,218.068074000068,219.9244525830727,right,1.8515234580263495,None,demo,001,2025-02-03_13h44.20.629,contrast_sensitivity,2024.2.4,None,2025-02-03 13h44.25.993894 -0500,
1.0,-1,16,217,37,3,left,0.11283437500242144,None,3,37,217,59,219.93828300002497,,,,219.9271394170355,220.53580116701778,220.65459187503438,left,0.11283437500242144,None,demo,001,2025-02-03_13h44.20.629,contrast_sensitivity,2024.2.4,None,2025-02-03 13h44.25.993894 -0500,
0.01,-1,16,218,38,3,left,2.5067552078980953,None,3,38,218,56,220.6631459170021,,,,220.656848542043,221.25181920803152,223.7710278329905,left,2.5067552078980953,None,demo,001,2025-02-03_13h44.20.629,contrast_sensitivity,2024.2.4,None,2025-02-03 13h44.25.993894 -0500,
0.05,-1,2,219,39,3,left,0.4349184159655124,None,3,39,219,21,223.78493395808619,,,,223.7731293750694,224.3855890830746,224.82868341705762,left,0.4349184159655124,None,demo,001,2025-02-03_13h44.20.629,contrast_sensitivity,2024.2.4,None,2025-02-03 13h44.25.993894 -0500,
0.01,1,1,220,40,3,right,0.8660031670005992,None,3,40,220,2,224.85174083302263,,,,224.83012012508698,225.42252324998844,226.29110329202376,right,0.8660031670005992,None,demo,001,2025-02-03_13h44.20.629,contrast_sensitivity,2024.2.4,None,2025-02-03 13h44.25.993894 -0500,
0.01,1,8,221,41,3,left,1.4112364170141518,None,3,41,221,38,226.30145154206548,,,,226.2935150420526,226.8851871250663,228.30477008305024,left,1.4112364170141518,None,demo,001,2025-02-03_13h44.20.629,contrast_sensitivity,2024.2.4,None,2025-02-03 13h44.25.993894 -0500,
0.0001,-1,4,222,42,3,left,0.2885563330492005,None,3,42,222,31,228.31856645806693,,,,228.30691283300985,228.90183350001462,229.20460487506352,left,0.2885563330492005,None,demo,001,2025-02-03_13h44.20.629,contrast_sensitivity,2024.2.4,None,2025-02-03 13h44.25.993894 -0500,
0.1,-1,2,223,43,3,left,1.3976597909349948,None,3,43,223,22,229.21355587500148,,,,229.20720995799638,229.8007842079969,231.2045141250128,left,1.3976597909349948,None,demo,001,2025-02-03_13h44.20.629,contrast_sensitivity,2024.2.4,None,2025-02-03 13h44.25.993894 -0500,
1e-08,1,4,224,44,3,left,1.7686611249810085,None,3,44,224,24,231.2124587080907,,,,231.20685920806136,231.80262974998914,233.57459062500857,left,1.7686611249810085,None,demo,001,2025-02-03_13h44.20.629,contrast_sensitivity,2024.2.4,None,2025-02-03 13h44.25.993894 -0500,
0.01,-1,1,225,45,3,left,0.511688958038576,None,3,45,225,8,233.5846812920645,,,,233.57730529201217,234.17264291702304,234.6878602920333,left,0.511688958038576,None,demo,001,2025-02-03_13h44.20.629,contrast_sensitivity,2024.2.4,None,2025-02-03 13h44.25.993894 -0500,
0.0001,-1,2,226,46,3,left,0.7953179579926655,None,3,46,226,19,234.69654820801225,,,,234.69009412499145,235.2849705000408,236.08692500006873,left,0.7953179579926655,None,demo,001,2025-02-03_13h44.20.629,contrast_sensitivity,2024.2.4,None,2025-02-03 13h44.25.993894 -0500,
0.0001,1,16,227,47,3,right,0.6104757499415427,None,3,47,227,49,236.09459116705693,,,,236.08940225001425,236.6851270420011,237.30437683302443,right,0.6104757499415427,None,demo,001,2025-02-03_13h44.20.629,contrast_sensitivity,2024.2.4,None,2025-02-03 13h44.25.993894 -0500,
0.05,-1,16,228,48,3,left,0.3887242500204593,None,3,48,228,57,237.31270395801403,,,,237.30652125005145,237.90084529202431,238.3019353330601,left,0.3887242500204593,None,demo,001,2025-02-03_13h44.20.629,contrast_sensitivity,2024.2.4,None,2025-02-03 13h44.25.993894 -0500,
1e-08,-1,1,229,49,3,left,1.6614360419334844,None,3,49,229,6,238.30681199999526,,,,238.30316491704434,238.8877888750285,240.5541479170788,left,1.6614360419334844,None,demo,001,2025-02-03_13h44.20.629,contrast_sensitivity,2024.2.4,None,2025-02-03 13h44.25.993894 -0500,
0.01,1,4,230,50,3,right,0.384855458047241,None,3,50,230,26,240.56814683310222,,,,240.555582042085,241.15230595809408,241.55437945807353,right,0.384855458047241,None,demo,001,2025-02-03_13h44.20.629,contrast_sensitivity,2024.2.4,None,2025-02-03 13h44.25.993894 -0500,
0.05,-1,4,231,51,3,left,0.187834250042215,None,3,51,231,33,241.5684220000403,,,,241.5565015421016,242.1562969170045,242.35353816708084,left,0.187834250042215,None,demo,001,2025-02-03_13h44.20.629,contrast_sensitivity,2024.2.4,None,2025-02-03 13h44.25.993894 -0500,
0.1,1,2,232,52,3,right,0.23929850000422448,None,3,52,232,16,242.36200420802925,,,,242.35548050003126,242.95179466705304,243.2035793750547,right,0.23929850000422448,None,demo,001,2025-02-03_13h44.20.629,contrast_sensitivity,2024.2.4,None,2025-02-03 13h44.25.993894 -0500,
1e-08,1,8,233,53,3,left,1.8423307500779629,None,3,53,233,36,243.21235708298627,,,,243.2054862920195,243.80173266702332,245.65411637502257,left,1.8423307500779629,None,demo,001,2025-02-03_13h44.20.629,contrast_sensitivity,2024.2.4,None,2025-02-03 13h44.25.993894 -0500,
0.1,-1,8,234,54,3,left,0.5172180829104036,None,3,54,234,46,245.66246091702487,,,,245.65608629200142,246.25077666703146,246.7726568330545,left,0.5172180829104036,None,demo,001,2025-02-03_13h44.20.629,contrast_sensitivity,2024.2.4,None,2025-02-03 13h44.25.993894 -0500,
0.01,1,16,235,55,3,right,1.1815659990534186,None,3,55,235,50,246.7839815830812,,,,246.77411133307032,247.36839725007303,248.5542710000882,right,1.1815659990534186,None,demo,001,2025-02-03_13h44.20.629,contrast_sensitivity,2024.2.4,None,2025-02-03 13h44.25.993894 -0500,
0.1,-1,16,236,56,3,left,0.6272481241030619,None,3,56,236,58,248.56331554206554,,,,248.55675895803142,249.15177558304276,249.78756416705437,left,0.6272481241030619,None,demo,001,2025-02-03_13h44.20.629,contrast_sensitivity,2024.2.4,None,2025-02-03 13h44.25.993894 -0500,
1e-08,-1,16,237,57,3,right,1.0325528749963269,None,3,57,237,54,249.79576995805837,,,,249.78971866704524,250.38532341702376,251.42058675002772,right,1.0325528749963269,None,demo,001,2025-02-03_13h44.20.629,contrast_sensitivity,2024.2.4,None,2025-02-03 13h44.25.993894 -0500,
0.0001,1,2,238,58,3,right,0.4117314169416204,None,3,58,238,13,251.42845391703304,,,,251.42274116701446,252.0182581670815,252.43681187508628,right,0.4117314169416204,None,demo,001,2025-02-03_13h44.20.629,contrast_sensitivity,2024.2.4,None,2025-02-03 13h44.25.993894 -0500,
1.0,1,4,239,59,3,right,1.2718247500015423,None,3,59,239,29,252.4451682920335,,,,252.43884499999695,253.03497545805294,254.3188858750509,right,1.2718247500015423,None,demo,001,2025-02-03_13h44.20.629,contrast_sensitivity,2024.2.4,None,2025-02-03 13h44.25.993894 -0500,
0.05,1,2,240,0,4,right,0.302107666968368,None,4,0,240,15,254.32456395810004,,,,254.32042370806448,254.91769887506962,255.22458270809148,right,0.302107666968368,None,demo,001,2025-02-03_13h44.20.629,contrast_sensitivity,2024.2.4,None,2025-02-03 13h44.25.993894 -0500,
1e-08,-1,4,241,1,4,left,0.7376984580187127,None,4,1,241,30,255.2347457500873,,,,255.22691887500696,255.83601920807268,256.5876357500674,left,0.7376984580187127,None,demo,001,2025-02-03_13h44.20.629,contrast_sensitivity,2024.2.4,None,2025-02-03 13h44.25.993894 -0500,
0.01,1,1,242,2,4,left,0.9403910409891978,None,4,2,242,2,256.6018767920323,,,,256.5896297500003,257.1853141670581,258.1377855420578,left,0.9403910409891978,None,demo,001,2025-02-03_13h44.20.629,contrast_sensitivity,2024.2.4,None,2025-02-03 13h44.25.993894 -0500,
1.0,1,8,243,3,4,right,0.5491397909354419,None,4,3,243,41,258.1465827500215,,,,258.14066929207183,258.75164170807693,259.30468325002585,right,0.5491397909354419,None,demo,001,2025-02-03_13h44.20.629,contrast_sensitivity,2024.2.4,None,2025-02-03 13h44.25.993894 -0500,
1.0,1,16,244,4,4,right,0.6778894170420244,None,4,4,244,53,259.31830483302474,,,,259.30708095803857,259.9008370829979,260.5874293750385,right,0.6778894170420244,None,demo,001,2025-02-03_13h44.20.629,contrast_sensitivity,2024.2.4,None,2025-02-03 13h44.25.993894 -0500,
0.05,-1,4,245,5,4,left,1.1798413749784231,None,4,5,245,33,260.6018722500885,,,,260.589514875086,261.18876333301887,262.3722207500832,left,1.1798413749784231,None,demo,001,2025-02-03_13h44.20.629,contrast_sensitivity,2024.2.4,None,2025-02-03 13h44.25.993894 -0500,
1.0,-1,2,246,6,4,left,0.43398258299566805,None,4,6,246,23,262.3841119580902,,,,262.37359045806807,262.9676220000256,263.4043215829879,left,0.43398258299566805,None,demo,001,2025-02-03_13h44.20.629,contrast_sensitivity,2024.2.4,None,2025-02-03 13h44.25.993894 -0500,
0.1,1,1,247,7,4,right,0.5372516670031473,None,4,7,247,4,263.4127093750285,,,,263.4063847080106,264.0075040830998,264.5544618330896,right,0.5372516670031473,None,demo,001,2025-02-03_13h44.20.629,contrast_sensitivity,2024.2.4,None,2025-02-03 13h44.25.993894 -0500,
0.0001,1,4,248,8,4,right,0.39821224997285753,None,4,8,248,25,264.5627109580673,,,,264.55640570807736,265.15140237507876,265.55344533303287,right,0.39821224997285753,None,demo,001,2025-02-03_13h44.20.629,contrast_sensitivity,2024.2.4,None,2025-02-03 13h44.25.993894 -0500,
0.01,1,4,249,9,4,left,0.8967841250123456,None,4,9,249,26,265.56986275000963,,,,265.5547197920969,266.15175258310046,267.05414783302695,left,0.8967841250123456,None,demo,001,2025-02-03_13h44.20.629,contrast_sensitivity,2024.2.4,None,2025-02-03 13h44.25.993894 -0500,
1.0,1,1,250,10,4,right,0.9234802909195423,None,4,10,250,5,267.0624700830085,,,,267.0565291669918,267.65197433310095,268.5874734580284,right,0.9234802909195423,None,demo,001,2025-02-03_13h44.20.629,contrast_sensitivity,2024.2.4,None,2025-02-03 13h44.25.993894 -0500,
1.0,-1,4,251,11,4,left,0.5362557079643011,None,4,11,251,35,268.59637600008864,,,,268.5898858330911,269.18527737504337,269.7249118750915,left,0.5362557079643011,None,demo,001,2025-02-03_13h44.20.629,contrast_sensitivity,2024.2.4,None,2025-02-03 13h44.25.993894 -0500,
0.0001,1,8,252,12,4,right,0.32302020804490894,None,4,12,252,37,269.7348073750036,,,,269.72712420800235,270.32175566710066,270.6520735420054,right,0.32302020804490894,None,demo,001,2025-02-03_13h44.20.629,contrast_sensitivity,2024.2.4,None,2025-02-03 13h44.25.993894 -0500,
0.01,-1,8,253,13,4,left,0.2151868740329519,None,4,13,253,44,270.6585401670309,,,,270.6540496670641,271.2402139999904,271.4575471250573,left,0.2151868740329519,None,demo,001,2025-02-03_13h44.20.629,contrast_sensitivity,2024.2.4,None,2025-02-03 13h44.25.993894 -0500,
0.05,-1,8,254,14,4,left,0.5745627499418333,None,4,14,254,45,271.468333292054,,,,271.4597829580307,272.0558732500067,272.6372482920997,left,0.5745627499418333,None,demo,001,2025-02-03_13h44.20.629,contrast_sensitivity,2024.2.4,None,2025-02-03 13h44.25.993894 -0500,
1.0,-1,8,255,15,4,left,0.3233692079083994,None,4,15,255,47,272.64597804204095,,,,272.6397413330851,273.235063750064,273.57013270806056,left,0.3233692079083994,None,demo,001,2025-02-03_13h44.20.629,contrast_sensitivity,2024.2.4,None,2025-02-03 13h44.25.993894 -0500,
1e-08,1,16,256,16,4,left,0.6000281660817564,None,4,16,256,48,273.57691425003577,,,,273.5723342919955,274.1683387500234,274.7738757500192,left,0.6000281660817564,None,demo,001,2025-02-03_13h44.20.629,contrast_sensitivity,2024.2.4,None,2025-02-03 13h44.25.993894 -0500,
1e-08,1,8,257,17,4,left,0.37551012507174164,None,4,17,257,36,274.7850007080706,,,,274.77522820804734,275.37284816708416,275.7548332080478,left,0.37551012507174164,None,demo,001,2025-02-03_13h44.20.629,contrast_sensitivity,2024.2.4,None,2025-02-03 13h44.25.993894 -0500,
0.01,-1,2,258,18,4,left,0.35667841706890613,None,4,18,258,20,275.7636877500918,,,,275.75721595808864,276.35167070804164,276.7205912080826,left,0.35667841706890613,None,demo,001,2025-02-03_13h44.20.629,contrast_sensitivity,2024.2.4,None,2025-02-03 13h44.25.993894 -0500,
0.0001,-1,1,259,19,4,left,0.3549157079542056,None,4,19,259,7,276.72943516704254,,,,276.72257125005126,277.31831475009676,277.68770391703583,left,0.3549157079542056,None,demo,001,2025-02-03_13h44.20.629,contrast_sensitivity,2024.2.4,None,2025-02-03 13h44.25.993894 -0500,
0.1,-1,2,260,20,4,left,0.3421019579982385,None,4,20,260,22,277.696369750076,,,,277.69016887503676,278.28411933302414,278.6358046249952,left,0.3421019579982385,None,demo,001,2025-02-03_13h44.20.629,contrast_sensitivity,2024.2.4,None,2025-02-03 13h44.25.993894 -0500,
1.0,1,2,261,21,4,right,0.22824787406716496,None,4,21,261,17,278.6418018330587,,,,278.63730675005354,279.2340630830731,279.4710204580333,right,0.22824787406716496,None,demo,001,2025-02-03_13h44.20.629,contrast_sensitivity,2024.2.4,None,2025-02-03 13h44.25.993894 -0500,
1e-08,1,1,262,22,4,left,0.8974947080714628,None,4,22,262,0,279.4795369580388,,,,279.4731638750527,280.068711708067,280.97090641700197,left,0.8974947080714628,None,demo,001,2025-02-03_13h44.20.629,contrast_sensitivity,2024.2.4,None,2025-02-03 13h44.25.993894 -0500,
0.01,1,8,263,23,4,right,0.42781479097902775,None,4,23,263,38,280.97975712502375,,,,280.9732512499904,281.5683540829923,282.00520995806437,right,0.42781479097902775,None,demo,001,2025-02-03_13h44.20.629,contrast_sensitivity,2024.2.4,None,2025-02-03 13h44.25.993894 -0500,
1e-08,-1,1,264,24,4,left,0.40742379100993276,None,4,24,264,6,282.0182439580094,,,,282.00753933307715,282.6047475420637,283.0208505000919,left,0.40742379100993276,None,demo,001,2025-02-03_13h44.20.629,contrast_sensitivity,2024.2.4,None,2025-02-03 13h44.25.993894 -0500,
0.01,1,16,265,25,4,right,0.4899006240302697,None,4,25,265,50,283.0302978750551,,,,283.02324512507766,283.61822487507015,284.12098508304916,right,0.4899006240302697,None,demo,001,2025-02-03_13h44.20.629,contrast_sensitivity,2024.2.4,None,2025-02-03 13h44.25.993894 -0500,
0.0001,-1,16,266,26,4,left,0.39565583295188844,None,4,26,266,55,284.13522258307785,,,,284.1238500420004,284.71842941700015,285.1200516250683,left,0.39565583295188844,None,demo,001,2025-02-03_13h44.20.629,contrast_sensitivity,2024.2.4,None,2025-02-03 13h44.25.993894 -0500,
0.05,1,1,267,27,4,right,0.5137103330343962,None,4,27,267,3,285.1285669580102,,,,285.1219900830183,285.71834716701414,286.2370157080004,right,0.5137103330343962,None,demo,001,2025-02-03_13h44.20.629,contrast_sensitivity,2024.2.4,None,2025-02-03 13h44.25.993894 -0500,
0.01,-1,1,268,28,4,left,0.3631224579876289,None,4,28,268,8,286.2459246669896,,,,286.23902066703886,286.83409575000405,287.20333062508143,left,0.3631224579876289,None,demo,001,2025-02-03_13h44.20.629,contrast_sensitivity,2024.2.4,None,2025-02-03 13h44.25.993894 -0500,
1e-08,1,4,269,29,4,left,0.34504499996546656,None,4,29,269,24,287.20979391701985,,,,287.20500233303756,287.8019621249987,288.1537729999982,left,0.34504499996546656,None,demo,001,2025-02-03_13h44.20.629,contrast_sensitivity,2024.2.4,None,2025-02-03 13h44.25.993894 -0500,
1e-08,-1,8,270,30,4,left,0.40435066691134125,None,4,30,270,42,288.1600560420193,,,,288.15537650010083,288.7516246250598,289.17070429201704,left,0.40435066691134125,None,demo,001,2025-02-03_13h44.20.629,contrast_sensitivity,2024.2.4,None,2025-02-03 13h44.25.993894 -0500,
0.01,-1,16,271,31,4,left,0.4464923329651356,None,4,31,271,56,289.17970691702794,,,,289.17299150000326,289.76858887507115,290.22110183304176,left,0.4464923329651356,None,demo,001,2025-02-03_13h44.20.629,contrast_sensitivity,2024.2.4,None,2025-02-03 13h44.25.993894 -0500,
1e-08,1,2,272,32,4,left,1.1656694998964667,None,4,32,272,12,290.22983304201625,,,,290.22348183300346,290.8183050000807,291.9873399169883,left,1.1656694998964667,None,demo,001,2025-02-03_13h44.20.629,contrast_sensitivity,2024.2.4,None,2025-02-03 13h44.25.993894 -0500,
0.0001,-1,2,273,33,4,left,0.38409775006584823,None,4,33,273,19,291.99664645805024,,,,291.989440125064,292.5848048750777,292.9745103750611,left,0.38409775006584823,None,demo,001,2025-02-03_13h44.20.629,contrast_sensitivity,2024.2.4,None,2025-02-03 13h44.25.993894 -0500,
1.0,1,4,274,34,4,right,1.1136058749398217,None,4,34,274,29,292.9848816250451,,,,292.97669445804786,293.57229208305944,294.6898485830752,right,1.1136058749398217,None,demo,001,2025-02-03_13h44.20.629,contrast_sensitivity,2024.2.4,None,2025-02-03 13h44.25.993894 -0500,
0.0001,1,16,275,35,4,right,0.7769774160115048,None,4,35,275,49,294.7007343750447,,,,294.6914526670007,295.28404345805757,296.0712138750823,right,0.7769774160115048,None,demo,001,2025-02-03_13h44.20.629,contrast_sensitivity,2024.2.4,None,2025-02-03 13h44.25.993894 -0500,
0.1,1,8,276,36,4,right,0.35652087500784546,None,4,36,276,40,296.08003887499217,,,,296.0735884170281,296.66833400004543,297.0372629580088,right,0.35652087500784546,None,demo,001,2025-02-03_13h44.20.629,contrast_sensitivity,2024.2.4,None,2025-02-03 13h44.25.993894 -0500,
0.1,1,16,277,37,4,right,0.5049615410389379,None,4,37,277,52,297.0462481670547,,,,297.0393848330714,297.6347766669933,298.15480487502646,right,0.5049615410389379,None,demo,001,2025-02-03_13h44.20.629,contrast_sensitivity,2024.2.4,None,2025-02-03 13h44.25.993894 -0500,
0.0001,-1,4,278,38,4,left,0.3271086240420118,None,4,38,278,31,298.1630986670498,,,,298.1567895420594,298.7517559170956,299.087885749992,left,0.3271086240420118,None,demo,001,2025-02-03_13h44.20.629,contrast_sensitivity,2024.2.4,None,2025-02-03 13h44.25.993894 -0500,
0.01,-1,4,279,39,4,left,0.449485250050202,None,4,39,279,32,299.09658695803955,,,,299.0903794580372,299.68525600002613,300.1379237920046,left,0.449485250050202,None,demo,001,2025-02-03_13h44.20.629,contrast_sensitivity,2024.2.4,None,2025-02-03 13h44.25.993894 -0500,
0.05,1,4,280,40,4,right,0.43827799905557185,None,4,40,280,27,300.1467105000047,,,,300.14014041703194,300.73537504207343,301.18732087500393,right,0.43827799905557185,None,demo,001,2025-02-03_13h44.20.629,contrast_sensitivity,2024.2.4,None,2025-02-03 13h44.25.993894 -0500,
0.0001,-1,8,281,41,4,left,0.4715438330313191,None,4,41,281,43,301.2016151250573,,,,301.18945979198907,301.7851189580979,302.26987308298703,left,0.4715438330313191,None,demo,001,2025-02-03_13h44.20.629,contrast_sensitivity,2024.2.4,None,2025-02-03 13h44.25.993894 -0500,
0.1,-1,8,282,42,4,left,1.3152879580156878,None,4,42,282,46,302.27721808303613,,,,302.2721145830583,302.8674293330405,304.18730762507766,left,1.3152879580156878,None,demo,001,2025-02-03_13h44.20.629,contrast_sensitivity,2024.2.4,None,2025-02-03 13h44.25.993894 -0500,
1.0,-1,1,283,43,4,left,0.3755644989432767,None,4,43,283,11,304.19680187501945,,,,304.1895269580418,304.78524312505033,305.1707502499921,left,0.3755644989432767,None,demo,001,2025-02-03_13h44.20.629,contrast_sensitivity,2024.2.4,None,2025-02-03 13h44.25.993894 -0500,
0.05,1,8,284,44,4,right,0.48931091593112797,None,4,44,284,39,305.18021191703156,,,,305.17283929209225,305.76827570807654,306.2709577920614,right,0.48931091593112797,None,demo,001,2025-02-03_13h44.20.629,contrast_sensitivity,2024.2.4,None,2025-02-03 13h44.25.993894 -0500,
0.1,1,2,285,45,4,right,0.5742372500244528,None,4,45,285,16,306.2801746670157,,,,306.2732819170924,306.86829570808914,307.4542396250181,right,0.5742372500244528,None,demo,001,2025-02-03_13h44.20.629,contrast_sensitivity,2024.2.4,None,2025-02-03 13h44.25.993894 -0500,
0.1,-1,1,286,46,4,left,0.8377479990012944,None,4,46,286,10,307.46245125005953,,,,307.4565893750405,308.05177604209166,308.8914388330886,left,0.8377479990012944,None,demo,001,2025-02-03_13h44.20.629,contrast_sensitivity,2024.2.4,None,2025-02-03 13h44.25.993894 -0500,
1.0,-1,16,287,47,4,left,0.42584274895489216,None,4,47,287,59,308.9014525420498,,,,308.893507083063,309.48979866702575,309.9215383330593,left,0.42584274895489216,None,demo,001,2025-02-03_13h44.20.629,contrast_sensitivity,2024.2.4,None,2025-02-03 13h44.25.993894 -0500,
0.01,1,2,288,48,4,left,0.6394707909785211,None,4,48,288,14,309.93048020801507,,,,309.92375858302694,310.5180400829995,311.16978483309504,left,0.6394707909785211,None,demo,001,2025-02-03_13h44.20.629,contrast_sensitivity,2024.2.4,None,2025-02-03 13h44.25.993894 -0500,
1e-08,-1,16,289,49,4,right,2.7679623750736937,None,4,49,289,54,311.1764727080008,,,,311.1716607080307,311.7674390000757,314.5379967080662,right,2.7679623750736937,None,demo,001,2025-02-03_13h44.20.629,contrast_sensitivity,2024.2.4,None,2025-02-03 13h44.25.993894 -0500,
0.05,-1,16,290,50,4,left,0.38523570797406137,None,4,50,290,57,314.55161408300046,,,,314.5404167500092,315.13515533308964,315.5251771250041,left,0.38523570797406137,None,demo,001,2025-02-03_13h44.20.629,contrast_sensitivity,2024.2.4,None,2025-02-03 13h44.25.993894 -0500,
0.05,-1,1,291,51,4,left,3.5540968750137836,None,4,51,291,9,315.5338184169959,,,,315.5271577920066,316.1181552920025,319.68653029203415,left,3.5540968750137836,None,demo,001,2025-02-03_13h44.20.629,contrast_sensitivity,2024.2.4,None,2025-02-03 13h44.25.993894 -0500,
0.1,1,4,292,52,4,right,0.3768820830155164,None,4,52,292,28,319.69256508303806,,,,319.68832750001457,320.28536554204766,320.6703293750761,right,0.3768820830155164,None,demo,001,2025-02-03_13h44.20.629,contrast_sensitivity,2024.2.4,None,2025-02-03 13h44.25.993894 -0500,
0.0001,1,2,293,53,4,right,0.46915549994446337,None,4,53,293,13,320.6790529580321,,,,320.67279016703833,321.2680182080949,321.7383823751006,right,0.46915549994446337,None,demo,001,2025-02-03_13h44.20.629,contrast_sensitivity,2024.2.4,None,2025-02-03 13h44.25.993894 -0500,
0.1,-1,4,294,54,4,left,0.08210208301898092,None,4,54,294,34,321.7514802500373,,,,321.73959891707636,322.3341106250882,322.4201209170278,left,0.08210208301898092,None,demo,001,2025-02-03_13h44.20.629,contrast_sensitivity,2024.2.4,None,2025-02-03 13h44.25.993894 -0500,
0.05,1,16,295,55,4,right,0.20661849901080132,None,4,55,295,51,322.4274920830503,,,,322.42203887505457,323.0185760000022,323.2364841250237,right,0.20661849901080132,None,demo,001,2025-02-03_13h44.20.629,contrast_sensitivity,2024.2.4,None,2025-02-03 13h44.25.993894 -0500,
0.1,-1,16,296,56,4,left,0.10289441701024771,None,4,56,296,58,323.24400966707617,,,,323.23799333302304,323.8352782080183,323.9454885830637,left,0.10289441701024771,None,demo,001,2025-02-03_13h44.20.629,contrast_sensitivity,2024.2.4,None,2025-02-03 13h44.25.993894 -0500,
1e-08,-1,2,297,57,4,right,1.030287666944787,None,4,57,297,18,323.9683354170993,,,,323.94690858304966,324.5369217080297,325.571125333081,right,1.030287666944787,None,demo,001,2025-02-03_13h44.20.629,contrast_sensitivity,2024.2.4,None,2025-02-03 13h44.25.993894 -0500,
0.05,-1,2,298,58,4,left,0.14930266595911235,None,4,58,298,21,325.58509304199833,,,,325.57324341707863,326.1687975830864,326.321519042016,left,0.14930266595911235,None,demo,001,2025-02-03_13h44.20.629,contrast_sensitivity,2024.2.4,None,2025-02-03 13h44.25.993894 -0500,
0.0001,1,1,299,59,4,right,0.9586116659920663,None,4,59,299,1,326.32856870803516,,,,326.3238127080258,326.91744095808826,327.8855118750362,right,0.9586116659920663,None,demo,001,2025-02-03_13h44.20.629,contrast_sensitivity,2024.2.4,None,2025-02-03 13h44.25.993894 -0500,
1.0,-1,16,300,0,5,left,0.43555158295203,None,5,0,300,59,327.8909832080826,,,,327.8869127500802,328.473498083069,328.9209762919927,left,0.43555158295203,None,demo,001,2025-02-03_13h44.20.629,contrast_sensitivity,2024.2.4,None,2025-02-03 13h44.25.993894 -0500,
1e-08,-1,16,301,1,5,left,1.253915166016668,None,5,1,301,54,328.9293401670875,,,,328.923142042011,329.51810204202775,330.7736549170222,left,1.253915166016668,None,demo,001,2025-02-03_13h44.20.629,contrast_sensitivity,2024.2.4,None,2025-02-03 13h44.25.993894 -0500,
1e-08,1,2,302,2,5,left,1.019607707974501,None,5,2,302,12,330.78507149999496,,,,330.77581587503664,331.3723880830221,332.4042547920253,left,1.019607707974501,None,demo,001,2025-02-03_13h44.20.629,contrast_sensitivity,2024.2.4,None,2025-02-03 13h44.25.993894 -0500,
0.0001,1,1,303,3,5,left,1.127243500086479,None,5,3,303,1,332.4129817080684,,,,332.40668904199265,333.00183645798825,334.13730483304244,left,1.127243500086479,None,demo,001,2025-02-03_13h44.20.629,contrast_sensitivity,2024.2.4,None,2025-02-03 13h44.25.993894 -0500,
0.01,1,4,304,4,5,right,0.3976314580067992,None,5,4,304,26,334.1458107919898,,,,334.13950970803853,334.7352312920848,335.1360875830287,right,0.3976314580067992,None,demo,001,2025-02-03_13h44.20.629,contrast_sensitivity,2024.2.4,None,2025-02-03 13h44.25.993894 -0500,
1.0,1,2,305,5,5,right,0.6538169999839738,None,5,5,305,17,335.14137354202103,,,,335.1374343750067,335.73403849999886,336.4036572080804,right,0.6538169999839738,None,demo,001,2025-02-03_13h44.20.629,contrast_sensitivity,2024.2.4,None,2025-02-03 13h44.25.993894 -0500,
1e-08,-1,4,306,6,5,left,2.5019323739688843,None,5,6,306,30,336.4095687500667,,,,336.40536112501286,337.0018497920828,339.5075709579978,left,2.5019323739688843,None,demo,001,2025-02-03_13h44.20.629,contrast_sensitivity,2024.2.4,None,2025-02-03 13h44.25.993894 -0500,
0.01,1,8,307,7,5,right,0.43973250000271946,None,5,7,307,38,339.5183186670765,,,,339.5097133750096,340.1060742920963,340.5544255001005,right,0.43973250000271946,None,demo,001,2025-02-03_13h44.20.629,contrast_sensitivity,2024.2.4,None,2025-02-03 13h44.25.993894 -0500,
1e-08,1,8,308,8,5,left,0.9061296250438318,None,5,8,308,36,340.5633428749861,,,,340.55699787510093,341.16863658302464,342.08835016703233,left,0.9061296250438318,None,demo,001,2025-02-03_13h44.20.629,contrast_sensitivity,2024.2.4,None,2025-02-03 13h44.25.993894 -0500,
0.1,-1,4,309,9,5,left,0.17587962502148002,None,5,9,309,34,342.101601958042,,,,342.09060729201883,342.7027789170388,342.8854217079934,left,0.17587962502148002,None,demo,001,2025-02-03_13h44.20.629,contrast_sensitivity,2024.2.4,None,2025-02-03 13h44.25.993894 -0500,
1.0,1,4,310,10,5,right,0.3806003329809755,None,5,10,310,29,342.89151791704353,,,,342.8868618750712,343.4841170000145,343.8697217500303,right,0.3806003329809755,None,demo,001,2025-02-03_13h44.20.629,contrast_sensitivity,2024.2.4,None,2025-02-03 13h44.25.993894 -0500,
0.0001,-1,1,311,11,5,left,1.3154875830514356,None,5,11,311,7,343.8762864579912,,,,343.87135304207914,344.46821633307263,345.7860397080658,left,1.3154875830514356,None,demo,001,2025-02-03_13h44.20.629,contrast_sensitivity,2024.2.4,None,2025-02-03 13h44.25.993894 -0500,
0.0001,1,4,312,12,5,right,0.9408432489726692,None,5,12,312,25,345.79189066705294,,,,345.78752712509595,346.3708431670675,347.320174625027,right,0.9408432489726692,None,demo,001,2025-02-03_13h44.20.629,contrast_sensitivity,2024.2.4,None,2025-02-03 13h44.25.993894 -0500,
0.05,1,2,313,13,5,right,1.9189438330940902,None,5,13,313,15,347.32856737507973,,,,347.3223642500816,347.9186312080128,349.8413504580967,right,1.9189438330940902,None,demo,001,2025-02-03_13h44.20.629,contrast_sensitivity,2024.2.4,None,2025-02-03 13h44.25.993894 -0500,
0.05,1,8,314,14,5,right,0.506541291018948,None,5,14,314,39,349.8514099169988,,,,349.8436432920862,350.4401275420096,350.95420566701796,right,0.506541291018948,None,demo,001,2025-02-03_13h44.20.629,contrast_sensitivity,2024.2.4,None,2025-02-03 13h44.25.993894 -0500,
1.0,1,1,315,15,5,right,0.035565458005294204,None,5,15,315,5,350.9617391250795,,,,350.9563860000344,351.5679259999888,351.60637279204093,right,0.035565458005294204,None,demo,001,2025-02-03_13h44.20.629,contrast_sensitivity,2024.2.4,None,2025-02-03 13h44.25.993894 -0500,
0.05,-1,4,316,16,5,left,0.4080946239409968,None,5,16,316,33,351.6174638750963,,,,351.60785683302674,352.2043993329862,352.6194501250284,left,0.4080946239409968,None,demo,001,2025-02-03_13h44.20.629,contrast_sensitivity,2024.2.4,None,2025-02-03 13h44.25.993894 -0500,
0.05,-1,2,317,17,5,left,0.23358895792625844,None,5,17,317,21,352.62484408309683,,,,352.62104670808185,353.21885070810094,353.4575627919985,left,0.23358895792625844,None,demo,001,2025-02-03_13h44.20.629,contrast_sensitivity,2024.2.4,None,2025-02-03 13h44.25.993894 -0500,
0.05,1,1,318,18,5,right,0.4710369169479236,None,5,18,318,3,353.46825966704637,,,,353.4595400830731,354.0693770000944,354.553986791987,right,0.4710369169479236,None,demo,001,2025-02-03_13h44.20.629,contrast_sensitivity,2024.2.4,None,2025-02-03 13h44.25.993894 -0500,
0.1,1,2,319,19,5,right,0.3563966660294682,None,5,19,319,16,354.56846566707827,,,,354.55597004201263,355.1689971250016,355.5378329170635,right,0.3563966660294682,None,demo,001,2025-02-03_13h44.20.629,contrast_sensitivity,2024.2.4,None,2025-02-03 13h44.25.993894 -0500,
0.01,-1,1,320,20,5,left,0.36498375004157424,None,5,20,320,8,355.5517116250703,,,,355.5399176250212,356.13543566700537,356.5050662920112,left,0.36498375004157424,None,demo,001,2025-02-03_13h44.20.629,contrast_sensitivity,2024.2.4,None,2025-02-03 13h44.25.993894 -0500,
0.1,1,16,321,21,5,right,0.5647157499333844,None,5,21,321,52,356.51833645801526,,,,356.5065754170064,357.1016485420987,357.6711486669956,right,0.5647157499333844,None,demo,001,2025-02-03_13h44.20.629,contrast_sensitivity,2024.2.4,None,2025-02-03 13h44.25.993894 -0500,
0.01,1,1,322,22,5,right,0.484966249903664,None,5,22,322,2,357.67984970798716,,,,357.67361808300484,358.26833950006403,358.75709795800503,right,0.484966249903664,None,demo,001,2025-02-03_13h44.20.629,contrast_sensitivity,2024.2.4,None,2025-02-03 13h44.25.993894 -0500,
0.0001,1,16,323,23,5,right,0.43251466704532504,None,5,23,323,49,358.7681819170248,,,,358.75871545809787,359.3547758749919,359.80227254203055,right,0.43251466704532504,None,demo,001,2025-02-03_13h44.20.629,contrast_sensitivity,2024.2.4,None,2025-02-03 13h44.25.993894 -0500,
1.0,-1,4,324,24,5,left,0.543276833021082,None,5,24,324,35,359.80687025003135,,,,359.8037490420975,360.4012308330275,360.9525184170343,left,0.543276833021082,None,demo,001,2025-02-03_13h44.20.629,contrast_sensitivity,2024.2.4,None,2025-02-03 13h44.25.993894 -0500,
0.0001,-1,16,325,25,5,left,0.849158083088696,None,5,25,325,55,360.9585220000008,,,,360.9539042080287,361.54011729208287,362.392207833007,left,0.849158083088696,None,demo,001,2025-02-03_13h44.20.629,contrast_sensitivity,2024.2.4,None,2025-02-03 13h44.25.993894 -0500,
0.01,-1,2,326,26,5,left,0.5795774159487337,None,5,26,326,20,362.4004709580913,,,,362.39447045803536,363.0026824170491,363.5885716250632,left,0.5795774159487337,None,demo,001,2025-02-03_13h44.20.629,contrast_sensitivity,2024.2.4,None,2025-02-03 13h44.25.993894 -0500,
1.0,1,16,327,27,5,right,0.19738341600168496,None,5,27,327,53,363.6017634579912,,,,363.59083704208024,364.18582008301746,364.38828041707166,right,0.19738341600168496,None,demo,001,2025-02-03_13h44.20.629,contrast_sensitivity,2024.2.4,None,2025-02-03 13h44.25.993894 -0500,
0.05,-1,1,328,28,5,left,0.35835224902257323,None,5,28,328,9,364.40161087503657,,,,364.3899144170573,365.0027523750905,365.3704586670501,left,0.35835224902257323,None,demo,001,2025-02-03_13h44.20.629,contrast_sensitivity,2024.2.4,None,2025-02-03 13h44.25.993894 -0500,
0.1,-1,2,329,29,5,left,0.132467458024621,None,5,29,329,22,365.3782833330333,,,,365.3725271250587,365.96874591708183,366.1037755830912,left,0.132467458024621,None,demo,001,2025-02-03_13h44.20.629,contrast_sensitivity,2024.2.4,None,2025-02-03 13h44.25.993894 -0500,
0.01,1,16,330,30,5,right,0.9163952490780503,None,5,30,330,50,366.11167162505444,,,,366.1061747079948,366.70171687507536,367.62494787503965,right,0.9163952490780503,None,demo,001,2025-02-03_13h44.20.629,contrast_sensitivity,2024.2.4,None,2025-02-03 13h44.25.993894 -0500,
0.0001,1,2,331,31,5,left,0.5841988329775631,None,5,31,331,13,367.6337644170271,,,,367.62621729203966,368.22096512501594,368.8084815420443,left,0.5841988329775631,None,demo,001,2025-02-03_13h44.20.629,contrast_sensitivity,2024.2.4,None,2025-02-03 13h44.25.993894 -0500,
0.1,-1,8,332,32,5,left,0.2973047079285607,None,5,32,332,46,368.8181714169914,,,,368.81080525007565,369.4187729579862,369.72042312507983,left,0.2973047079285607,None,demo,001,2025-02-03_13h44.20.629,contrast_sensitivity,2024.2.4,None,2025-02-03 13h44.25.993894 -0500,
1e-08,-1,8,333,33,5,left,0.41457649890799075,None,5,33,333,42,369.7282464579912,,,,369.72256783302873,370.31849258299917,370.73769687500317,left,0.41457649890799075,None,demo,001,2025-02-03_13h44.20.629,contrast_sensitivity,2024.2.4,None,2025-02-03 13h44.25.993894 -0500,
0.0001,-1,2,334,34,5,left,0.261210290947929,None,5,34,334,19,370.7460831250064,,,,370.7400838750182,371.33497991703916,371.6037420000648,left,0.261210290947929,None,demo,001,2025-02-03_13h44.20.629,contrast_sensitivity,2024.2.4,None,2025-02-03 13h44.25.993894 -0500,
1.0,-1,8,335,35,5,left,0.5160548329586163,None,5,35,335,47,371.61097250005696,,,,371.60605141706765,372.2019399170531,372.72010879206937,left,0.5160548329586163,None,demo,001,2025-02-03_13h44.20.629,contrast_sensitivity,2024.2.4,None,2025-02-03 13h44.25.993894 -0500,
0.01,-1,8,336,36,5,left,0.6175909580197185,None,5,36,336,44,372.73493887507357,,,,372.72157675004564,373.318353000097,373.9414487500908,left,0.6175909580197185,None,demo,001,2025-02-03_13h44.20.629,contrast_sensitivity,2024.2.4,None,2025-02-03 13h44.25.993894 -0500,
1.0,1,8,337,37,5,right,0.24683545797597617,None,5,37,337,41,373.9516093750717,,,,373.9435842500534,374.5401080000447,374.7900345000671,right,0.24683545797597617,None,demo,001,2025-02-03_13h44.20.629,contrast_sensitivity,2024.2.4,None,2025-02-03 13h44.25.993894 -0500,
0.0001,-1,4,338,38,5,left,0.3979100410360843,None,5,38,338,31,374.80150787509046,,,,374.7922059170669,375.38901033299044,375.7903580830898,left,0.3979100410360843,None,demo,001,2025-02-03_13h44.20.629,contrast_sensitivity,2024.2.4,None,2025-02-03 13h44.25.993894 -0500,
0.0001,1,8,339,39,5,right,0.7823705408954993,None,5,39,339,37,375.80071462504566,,,,375.7918054170441,376.38755316706374,377.17355079203844,right,0.7823705408954993,None,demo,001,2025-02-03_13h44.20.629,contrast_sensitivity,2024.2.4,None,2025-02-03 13h44.25.993894 -0500,
0.1,-1,1,340,40,5,left,0.4403835409320891,None,5,40,340,10,377.18475225009024,,,,377.1750455000438,377.77265795809217,378.2209759580437,left,0.4403835409320891,None,demo,001,2025-02-03_13h44.20.629,contrast_sensitivity,2024.2.4,None,2025-02-03 13h44.25.993894 -0500,
0.1,1,8,341,41,5,right,0.3455428750021383,None,5,41,341,40,378.2294442920247,,,,378.2231392500689,378.8183289170265,379.17113866703585,right,0.3455428750021383,None,demo,001,2025-02-03_13h44.20.629,contrast_sensitivity,2024.2.4,None,2025-02-03 13h44.25.993894 -0500,
0.05,1,16,342,42,5,right,0.2785274999914691,None,5,42,342,51,379.17958433309104,,,,379.17322604206856,379.7683793330798,380.05336308304686,right,0.2785274999914691,None,demo,001,2025-02-03_13h44.20.629,contrast_sensitivity,2024.2.4,None,2025-02-03 13h44.25.993894 -0500,
0.05,-1,8,343,43,5,left,0.17386958294082433,None,5,43,343,45,380.06175383308437,,,,380.05531058309134,380.65145679202396,380.8378490420291,left,0.17386958294082433,None,demo,001,2025-02-03_13h44.20.629,contrast_sensitivity,2024.2.4,None,2025-02-03 13h44.25.993894 -0500,
0.1,1,1,344,44,5,right,0.17272358294576406,None,5,44,344,4,380.84763362503145,,,,380.8405695420224,381.43505437509157,381.62068341707345,right,0.17272358294576406,None,demo,001,2025-02-03_13h44.20.629,contrast_sensitivity,2024.2.4,None,2025-02-03 13h44.25.993894 -0500,
0.05,-1,16,345,45,5,left,0.48946470802184194,None,5,45,345,57,381.62909912504256,,,,381.62298675009515,382.2352973750094,382.73757366708014,left,0.48946470802184194,None,demo,001,2025-02-03_13h44.20.629,contrast_sensitivity,2024.2.4,None,2025-02-03 13h44.25.993894 -0500,
1.0,-1,1,346,46,5,left,0.8483324580593035,None,5,46,346,11,382.7458410420222,,,,382.7395581250312,383.3344439580105,384.1855144579895,left,0.8483324580593035,None,demo,001,2025-02-03_13h44.20.629,contrast_sensitivity,2024.2.4,None,2025-02-03 13h44.25.993894 -0500,
1.0,-1,2,347,47,5,left,0.7305282079614699,None,5,47,347,23,384.1909443750046,,,,384.18693258299027,384.7842157080304,385.5204947500024,left,0.7305282079614699,None,demo,001,2025-02-03_13h44.20.629,contrast_sensitivity,2024.2.4,None,2025-02-03 13h44.25.993894 -0500,
1e-08,-1,1,348,48,5,right,0.7116980000864714,None,5,48,348,6,385.5276540420018,,,,385.52258874999825,386.1181347920792,386.83681258303113,right,0.7116980000864714,None,demo,001,2025-02-03_13h44.20.629,contrast_sensitivity,2024.2.4,None,2025-02-03 13h44.25.993894 -0500,
1e-08,1,4,349,49,5,left,0.46266158297657967,None,5,49,349,24,386.8454657919938,,,,386.83882762503345,387.43501154205296,387.9038177500479,left,0.46266158297657967,None,demo,001,2025-02-03_13h44.20.629,contrast_sensitivity,2024.2.4,None,2025-02-03 13h44.25.993894 -0500,
1e-08,-1,2,350,50,5,right,0.934839791036211,None,5,50,350,18,387.9105712500168,,,,387.90565254201647,388.5017830830766,389.44127016700804,right,0.934839791036211,None,demo,001,2025-02-03_13h44.20.629,contrast_sensitivity,2024.2.4,None,2025-02-03 13h44.25.993894 -0500,
0.1,-1,16,351,51,5,left,0.4476236669579521,None,5,51,351,58,389.4513777079992,,,,389.4438299169997,390.03512033307925,390.48750695807394,left,0.4476236669579521,None,demo,001,2025-02-03_13h44.20.629,contrast_sensitivity,2024.2.4,None,2025-02-03 13h44.25.993894 -0500,
1e-08,1,1,352,52,5,left,1.3389750830829144,None,5,52,352,0,390.49627566710114,,,,390.48959162505344,391.0845425419975,392.435908417101,left,1.3389750830829144,None,demo,001,2025-02-03_13h44.20.629,contrast_sensitivity,2024.2.4,None,2025-02-03 13h44.25.993894 -0500,
0.01,-1,4,353,53,5,left,0.39561883301939815,None,5,53,353,32,392.44221579201985,,,,392.4374496670207,393.0349136249861,393.4376589170424,left,0.39561883301939815,None,demo,001,2025-02-03_13h44.20.629,contrast_sensitivity,2024.2.4,None,2025-02-03 13h44.25.993894 -0500,
0.0001,-1,8,354,54,5,left,0.37320912501309067,None,5,54,354,43,393.44654887507204,,,,393.4400824580807,394.03525354200974,394.4203958750004,left,0.37320912501309067,None,demo,001,2025-02-03_13h44.20.629,contrast_sensitivity,2024.2.4,None,2025-02-03 13h44.25.993894 -0500,
0.1,1,4,355,55,5,right,0.884633457986638,None,5,55,355,28,394.4289492920507,,,,394.4226570420433,395.0358492920641,395.92597608303186,right,0.884633457986638,None,demo,001,2025-02-03_13h44.20.629,contrast_sensitivity,2024.2.4,None,2025-02-03 13h44.25.993894 -0500,
1e-08,1,16,356,56,5,left,1.7224497079150751,None,5,56,356,48,395.9338784170104,,,,395.9282194999978,396.5231426670216,398.25361316709314,left,1.7224497079150751,None,demo,001,2025-02-03_13h44.20.629,contrast_sensitivity,2024.2.4,None,2025-02-03 13h44.25.993894 -0500,
0.01,-1,16,357,57,5,left,0.3935148739255965,None,5,57,357,56,398.26245120808017,,,,398.2558233750751,398.8518752499949,399.2538929580478,left,0.3935148739255965,None,demo,001,2025-02-03_13h44.20.629,contrast_sensitivity,2024.2.4,None,2025-02-03 13h44.25.993894 -0500,
0.05,1,4,358,58,5,right,0.3049175830092281,None,5,58,358,27,399.2687810000498,,,,399.25607420806773,399.8694181670435,400.1873454580782,right,0.3049175830092281,None,demo,001,2025-02-03_13h44.20.629,contrast_sensitivity,2024.2.4,None,2025-02-03 13h44.25.993894 -0500,
0.01,1,2,359,59,5,left,0.6911831239704043,None,5,59,359,14,400.196381167043,,,,400.18949841707945,400.7841124580009,401.48627691704314,left,0.6911831239704043,None,demo,001,2025-02-03_13h44.20.629,contrast_sensitivity,2024.2.4,None,2025-02-03 13h44.25.993894 -0500,
