contrast,location,size,thisN,thisTrialN,thisRepN,response.keys,response.rt,response.duration,trials.thisRepN,trials.thisTrialN,trials.thisN,trials.thisIndex,thisRow.t,notes,begin_experiment.started,begin_experiment.stopped,trial.started,response.started,trial.stopped,trials.response.keys,trials.response.rt,trials.response.duration,participant,session,date,expName,psychopyVersion,frameRate,expStart,
,,,,,,,,,,,,,,,0.007519332924857736,1.2455357080325484,,,,,,,demo,001,2025-01-26_15h03.15.556,contrast_sensitivity,2024.2.4,None,2025-01-26 15h03.22.047040 -0500,
1e-05,-1,0.2,0,0,0,left,1.0919647089904174,None,0,0,0,23,1.258637291030027,,,,1.2529763330239803,1.8402406249660999,2.938477999996394,left,1.0919647089904174,None,demo,001,2025-01-26_15h03.15.556,contrast_sensitivity,2024.2.4,None,2025-01-26 15h03.22.047040 -0500,
0.1,1,0.05,1,1,0,right,0.3042056249687448,None,0,1,1,47,2.9466168750077486,,,,2.940613874932751,3.5368223750265315,3.855954875005409,right,0.3042056249687448,None,demo,001,2025-01-26_15h03.15.556,contrast_sensitivity,2024.2.4,None,2025-01-26 15h03.22.047040 -0500,
0.01,1,0.05,2,2,0,right,0.6019877919461578,None,0,2,2,46,3.869633791036904,,,,3.8578839580295607,4.452063957927749,5.059712290996686,right,0.6019877919461578,None,demo,001,2025-01-26_15h03.15.556,contrast_sensitivity,2024.2.4,None,2025-01-26 15h03.22.047040 -0500,
1.0,1,0.05,3,3,0,right,0.23759245802648365,None,0,3,3,48,5.07695012493059,,,,5.061536040971987,5.657469499972649,5.905539250001311,right,0.23759245802648365,None,demo,001,2025-01-26_15h03.15.556,contrast_sensitivity,2024.2.4,None,2025-01-26 15h03.22.047040 -0500,
0.1,1,0.1,4,4,0,right,0.2770036670845002,None,0,4,4,33,5.919977125013247,,,,5.9072430829983205,6.503012749948539,6.789187500020489,right,0.2770036670845002,None,demo,001,2025-01-26_15h03.15.556,contrast_sensitivity,2024.2.4,None,2025-01-26 15h03.22.047040 -0500,
0.1,-1,0.4,5,5,0,left,0.2285394590580836,None,0,5,5,12,6.796552625019103,,,,6.791193875018507,7.38657166599296,7.621724999975413,left,0.2285394590580836,None,demo,001,2025-01-26_15h03.15.556,contrast_sensitivity,2024.2.4,None,2025-01-26 15h03.22.047040 -0500,
0.1,1,0.025,6,6,0,right,0.6360690000001341,None,0,6,6,61,7.6301649999804795,,,,7.623606040957384,8.219908416038379,8.858998041017912,right,0.6360690000001341,None,demo,001,2025-01-26_15h03.15.556,contrast_sensitivity,2024.2.4,None,2025-01-26 15h03.22.047040 -0500,
1e-09,-1,0.025,7,7,0,left,0.527788250008598,None,0,7,7,63,8.869364790967666,,,,8.861112707993016,9.455319875036366,9.989100415958092,left,0.527788250008598,None,demo,001,2025-01-26_15h03.15.556,contrast_sensitivity,2024.2.4,None,2025-01-26 15h03.22.047040 -0500,
0.001,1,0.1,8,8,0,left,0.4504430830711499,None,0,8,8,31,10.003204833017662,,,,9.990891041001305,10.586463665938936,11.045214124955237,left,0.4504430830711499,None,demo,001,2025-01-26_15h03.15.556,contrast_sensitivity,2024.2.4,None,2025-01-26 15h03.22.047040 -0500,
1e-05,-1,0.025,9,9,0,right,0.2692816249327734,None,0,9,9,65,11.052989874966443,,,,11.046345124952495,11.641737999976613,11.921954624936916,right,0.2692816249327734,None,demo,001,2025-01-26_15h03.15.556,contrast_sensitivity,2024.2.4,None,2025-01-26 15h03.22.047040 -0500,
1.0,-1,0.1,10,10,0,left,0.35002441704273224,None,0,10,10,41,11.930681957979687,,,,11.923872333019972,12.519831457990222,12.878635832923464,left,0.35002441704273224,None,demo,001,2025-01-26_15h03.15.556,contrast_sensitivity,2024.2.4,None,2025-01-26 15h03.22.047040 -0500,
1.0,-1,0.4,11,11,0,left,0.14741491700988263,None,0,11,11,13,12.886839541024528,,,,12.879762041033246,13.474485583021306,13.62516583292745,left,0.14741491700988263,None,demo,001,2025-01-26_15h03.15.556,contrast_sensitivity,2024.2.4,None,2025-01-26 15h03.22.047040 -0500,
1e-05,-1,0.05,12,12,0,right,0.7371206670068204,None,0,12,12,51,13.636173999984749,,,,13.627196457935497,14.22273449995555,14.972081540967338,right,0.7371206670068204,None,demo,001,2025-01-26_15h03.15.556,contrast_sensitivity,2024.2.4,None,2025-01-26 15h03.22.047040 -0500,
0.01,-1,0.1,13,13,0,left,0.35305616701953113,None,0,13,13,39,14.980699833016843,,,,14.974294582963921,15.569739250000566,15.92543362500146,left,0.35305616701953113,None,demo,001,2025-01-26_15h03.15.556,contrast_sensitivity,2024.2.4,None,2025-01-26 15h03.22.047040 -0500,
1e-05,1,0.025,14,14,0,right,0.48996245907619596,None,0,14,14,58,15.936103416024707,,,,15.9275566249853,16.52487454097718,17.021653790958226,right,0.48996245907619596,None,demo,001,2025-01-26_15h03.15.556,contrast_sensitivity,2024.2.4,None,2025-01-26 15h03.22.047040 -0500,
0.01,-1,0.4,15,15,0,left,0.2601360830012709,None,0,15,15,11,17.029518916038796,,,,17.023570999968797,17.618782875011675,17.888757874956354,left,0.2601360830012709,None,demo,001,2025-01-26_15h03.15.556,contrast_sensitivity,2024.2.4,None,2025-01-26 15h03.22.047040 -0500,
0.01,-1,0.025,16,16,0,right,0.24647762498352677,None,0,16,16,67,17.897264124942012,,,,17.890661165933125,18.486314708017744,18.738067833008245,right,0.24647762498352677,None,demo,001,2025-01-26_15h03.15.556,contrast_sensitivity,2024.2.4,None,2025-01-26 15h03.22.047040 -0500,
1e-07,-1,0.05,17,17,0,left,0.36027283291332424,None,0,17,17,50,18.746010915958323,,,,18.740072374930605,19.336453708005138,19.705569791025482,left,0.36027283291332424,None,demo,001,2025-01-26_15h03.15.556,contrast_sensitivity,2024.2.4,None,2025-01-26 15h03.22.047040 -0500,
1e-07,-1,0.2,18,18,0,right,0.40466837503481656,None,0,18,18,22,19.713598290923983,,,,19.70764216594398,20.3020625829231,20.70892833301332,right,0.40466837503481656,None,demo,001,2025-01-26_15h03.15.556,contrast_sensitivity,2024.2.4,None,2025-01-26 15h03.22.047040 -0500,
1.0,1,0.2,19,19,0,right,0.13864145893603563,None,0,19,19,20,20.7193282910157,,,,20.71081354096532,21.32002804102376,21.471987499971874,right,0.13864145893603563,None,demo,001,2025-01-26_15h03.15.556,contrast_sensitivity,2024.2.4,None,2025-01-26 15h03.22.047040 -0500,
1.0,1,0.1,20,20,0,right,0.12203750002663583,None,0,20,20,34,21.48096541594714,,,,21.474029915989377,22.069627832970582,22.193453624960966,right,0.12203750002663583,None,demo,001,2025-01-26_15h03.15.556,contrast_sensitivity,2024.2.4,None,2025-01-26 15h03.22.047040 -0500,
1e-07,-1,0.4,21,21,0,left,0.7028818329563364,None,0,21,21,8,22.20299320796039,,,,22.195227541029453,22.79078258294612,23.505331665975973,left,0.7028818329563364,None,demo,001,2025-01-26_15h03.15.556,contrast_sensitivity,2024.2.4,None,2025-01-26 15h03.22.047040 -0500,
0.01,1,0.1,22,22,0,right,0.36168079101480544,None,0,22,22,32,23.513927749940194,,,,23.507496915990487,24.103008416015655,24.471781166037545,right,0.36168079101480544,None,demo,001,2025-01-26_15h03.15.556,contrast_sensitivity,2024.2.4,None,2025-01-26 15h03.22.047040 -0500,
1e-09,-1,0.05,23,23,0,left,0.424718749942258,None,0,23,23,49,24.480611708015203,,,,24.473768415977247,25.069913499988616,25.505179333034903,left,0.424718749942258,None,demo,001,2025-01-26_15h03.15.556,contrast_sensitivity,2024.2.4,None,2025-01-26 15h03.22.047040 -0500,
1e-07,1,0.2,24,24,0,left,0.319577542017214,None,0,24,24,15,25.5137869999744,,,,25.507362833013758,26.103022458031774,26.4261224999791,left,0.319577542017214,None,demo,001,2025-01-26_15h03.15.556,contrast_sensitivity,2024.2.4,None,2025-01-26 15h03.22.047040 -0500,
0.1,-1,0.2,25,25,0,left,0.03182587493211031,None,0,25,25,26,26.436175207956694,,,,26.42740133299958,27.021764416014776,27.057147749932483,left,0.03182587493211031,None,demo,001,2025-01-26_15h03.15.556,contrast_sensitivity,2024.2.4,None,2025-01-26 15h03.22.047040 -0500,
1.0,1,0.4,26,26,0,right,0.060705707990564406,None,0,26,26,6,27.068728290963918,,,,27.058740374981426,27.652962957974523,27.72213783301413,right,0.060705707990564406,None,demo,001,2025-01-26_15h03.15.556,contrast_sensitivity,2024.2.4,None,2025-01-26 15h03.22.047040 -0500,
0.001,-1,0.1,27,27,0,right,0.8917229169746861,None,0,27,27,38,27.73015470802784,,,,27.724229707964696,28.319880333030596,29.221701083006337,right,0.8917229169746861,None,demo,001,2025-01-26_15h03.15.556,contrast_sensitivity,2024.2.4,None,2025-01-26 15h03.22.047040 -0500,
1.0,1,0.025,28,28,0,right,0.034552874974906445,None,0,28,28,62,29.23071033298038,,,,29.223722958005965,29.819925333024003,29.85867749992758,right,0.034552874974906445,None,demo,001,2025-01-26_15h03.15.556,contrast_sensitivity,2024.2.4,None,2025-01-26 15h03.22.047040 -0500,
0.01,1,0.025,29,29,0,left,0.4214092920301482,None,0,29,29,60,29.8695464580087,,,,29.860490457969718,30.45301166595891,30.88835270795971,left,0.4214092920301482,None,demo,001,2025-01-26_15h03.15.556,contrast_sensitivity,2024.2.4,None,2025-01-26 15h03.22.047040 -0500,
0.01,1,0.2,30,30,0,left,0.4238587920553982,None,0,30,30,18,30.897270290995948,,,,30.890330250025727,31.486585707985796,31.922307083033957,left,0.4238587920553982,None,demo,001,2025-01-26_15h03.15.556,contrast_sensitivity,2024.2.4,None,2025-01-26 15h03.22.047040 -0500,
1e-07,-1,0.1,31,31,0,left,0.40775779192335904,None,0,31,31,36,31.930817332933657,,,,31.924161999952048,32.519674332928844,32.93893212499097,left,0.40775779192335904,None,demo,001,2025-01-26_15h03.15.556,contrast_sensitivity,2024.2.4,None,2025-01-26 15h03.22.047040 -0500,
1e-05,1,0.2,32,32,0,left,0.36412770906463265,None,0,32,32,16,32.94709195801988,,,,32.940784625010565,33.53640583297238,33.904735082993284,left,0.36412770906463265,None,demo,001,2025-01-26_15h03.15.556,contrast_sensitivity,2024.2.4,None,2025-01-26 15h03.22.047040 -0500,
0.001,1,0.025,33,33,0,right,0.6643816669238731,None,0,33,33,59,33.912269708001986,,,,33.90659379097633,34.50301829096861,35.17286824993789,right,0.6643816669238731,None,demo,001,2025-01-26_15h03.15.556,contrast_sensitivity,2024.2.4,None,2025-01-26 15h03.22.047040 -0500,
1e-09,1,0.025,34,34,0,left,0.3887289999984205,None,0,34,34,56,35.18145591602661,,,,35.174809791031294,35.769628374953754,36.172779540997,left,0.3887289999984205,None,demo,001,2025-01-26_15h03.15.556,contrast_sensitivity,2024.2.4,None,2025-01-26 15h03.22.047040 -0500,
0.001,1,0.4,35,35,0,right,0.34759629203472286,None,0,35,35,3,36.181469707982615,,,,36.17487279092893,36.76975874998607,37.12220491596963,right,0.34759629203472286,None,demo,001,2025-01-26_15h03.15.556,contrast_sensitivity,2024.2.4,None,2025-01-26 15h03.22.047040 -0500,
1.0,-1,0.2,36,36,0,left,0.2475525001063943,None,0,36,36,27,37.130802707979456,,,,37.12413866596762,37.719811458024196,37.97228908294346,left,0.2475525001063943,None,demo,001,2025-01-26_15h03.15.556,contrast_sensitivity,2024.2.4,None,2025-01-26 15h03.22.047040 -0500,
1e-09,-1,0.1,37,37,0,right,0.5117132080486044,None,0,37,37,35,37.98008350003511,,,,37.97446824994404,38.569682333036326,39.088632332975976,right,0.5117132080486044,None,demo,001,2025-01-26_15h03.15.556,contrast_sensitivity,2024.2.4,None,2025-01-26 15h03.22.047040 -0500,
1e-09,1,0.05,38,38,0,left,0.3439710410311818,None,0,38,38,42,39.09724379098043,,,,39.09057883301284,39.686295124934986,40.03848074993584,left,0.3439710410311818,None,demo,001,2025-01-26_15h03.15.556,contrast_sensitivity,2024.2.4,None,2025-01-26 15h03.22.047040 -0500,
0.1,-1,0.05,39,39,0,left,0.23790666705463082,None,0,39,39,54,40.04468220798299,,,,40.03995629097335,40.63634033303242,40.88932054094039,left,0.23790666705463082,None,demo,001,2025-01-26_15h03.15.556,contrast_sensitivity,2024.2.4,None,2025-01-26 15h03.22.047040 -0500,
1e-07,1,0.025,40,40,0,left,0.5054869160521775,None,0,40,40,57,40.89788745797705,,,,40.89125849993434,41.48674266599119,42.00507195794489,left,0.5054869160521775,None,demo,001,2025-01-26_15h03.15.556,contrast_sensitivity,2024.2.4,None,2025-01-26 15h03.22.047040 -0500,
1e-09,1,0.1,41,41,0,right,0.3720633330522105,None,0,41,41,28,42.0139959580265,,,,42.007200540974736,42.603132457938045,42.988362874952145,right,0.3720633330522105,None,demo,001,2025-01-26_15h03.15.556,contrast_sensitivity,2024.2.4,None,2025-01-26 15h03.22.047040 -0500,
1e-05,-1,0.4,42,42,0,left,0.15428575000260025,None,0,42,42,9,43.003117415937595,,,,42.99006824998651,43.586841957992874,43.75533033302054,left,0.15428575000260025,None,demo,001,2025-01-26_15h03.15.556,contrast_sensitivity,2024.2.4,None,2025-01-26 15h03.22.047040 -0500,
0.001,-1,0.4,43,43,0,left,0.2878625829471275,None,0,43,43,10,43.763418290996924,,,,43.75737995794043,44.35327170800883,44.655874707968906,left,0.2878625829471275,None,demo,001,2025-01-26_15h03.15.556,contrast_sensitivity,2024.2.4,None,2025-01-26 15h03.22.047040 -0500,
1e-07,1,0.05,44,44,0,right,0.5321438340470195,None,0,44,44,43,44.66464850003831,,,,44.65772158303298,45.25301683298312,45.78856579097919,right,0.5321438340470195,None,demo,001,2025-01-26_15h03.15.556,contrast_sensitivity,2024.2.4,None,2025-01-26 15h03.22.047040 -0500,
0.001,1,0.2,45,45,0,left,0.773587292060256,None,0,45,45,17,45.79715754103381,,,,45.79040249995887,46.40348204097245,47.18762179103214,left,0.773587292060256,None,demo,001,2025-01-26_15h03.15.556,contrast_sensitivity,2024.2.4,None,2025-01-26 15h03.22.047040 -0500,
0.01,-1,0.05,46,46,0,right,0.6316088330931962,None,0,46,46,53,47.193918540957384,,,,47.1890461249277,47.78645912499633,48.42206562496722,right,0.6316088330931962,None,demo,001,2025-01-26_15h03.15.556,contrast_sensitivity,2024.2.4,None,2025-01-26 15h03.22.047040 -0500,
0.001,-1,0.025,47,47,0,left,0.5806003750767559,None,0,47,47,66,48.430583207984455,,,,48.423989000031725,49.019466707948595,49.60622299998067,left,0.5806003750767559,None,demo,001,2025-01-26_15h03.15.556,contrast_sensitivity,2024.2.4,None,2025-01-26 15h03.22.047040 -0500,
1.0,-1,0.05,48,48,0,left,0.14404237503185868,None,0,48,48,55,49.6199249579804,,,,49.60810241603758,50.208057790994644,50.35505366593134,left,0.14404237503185868,None,demo,001,2025-01-26_15h03.15.556,contrast_sensitivity,2024.2.4,None,2025-01-26 15h03.22.047040 -0500,
1e-09,-1,0.2,49,49,0,left,0.18962879199534655,None,0,49,49,21,50.3622217499651,,,,50.357219040975906,50.95341433293652,51.15547100000549,left,0.18962879199534655,None,demo,001,2025-01-26_15h03.15.556,contrast_sensitivity,2024.2.4,None,2025-01-26 15h03.22.047040 -0500,
0.01,1,0.4,50,50,0,right,0.611676707980223,None,0,50,50,4,51.16420904092956,,,,51.157570707960986,51.753337332978845,52.37197454099078,right,0.611676707980223,None,demo,001,2025-01-26_15h03.15.556,contrast_sensitivity,2024.2.4,None,2025-01-26 15h03.22.047040 -0500,
0.1,1,0.4,51,51,0,right,0.19110599998384714,None,0,51,51,5,52.38103808299638,,,,52.374308999977075,52.969855041010305,53.17226150003262,right,0.19110599998384714,None,demo,001,2025-01-26_15h03.15.556,contrast_sensitivity,2024.2.4,None,2025-01-26 15h03.22.047040 -0500,
0.001,-1,0.2,52,52,0,left,0.3562280830228701,None,0,52,52,24,53.181033166009,,,,53.1746627909597,53.769725166028365,54.137589582940564,left,0.3562280830228701,None,demo,001,2025-01-26_15h03.15.556,contrast_sensitivity,2024.2.4,None,2025-01-26 15h03.22.047040 -0500,
1e-07,-1,0.025,53,53,0,left,0.26134862494654953,None,0,53,53,64,54.143525457940996,,,,54.139099541003816,54.73660108295735,55.00606525002513,left,0.26134862494654953,None,demo,001,2025-01-26_15h03.15.556,contrast_sensitivity,2024.2.4,None,2025-01-26 15h03.22.047040 -0500,
0.001,1,0.05,54,54,0,left,0.6875427089398727,None,0,54,54,45,55.01437112502754,,,,55.00799383292906,55.60335412493441,56.2928110830253,left,0.6875427089398727,None,demo,001,2025-01-26_15h03.15.556,contrast_sensitivity,2024.2.4,None,2025-01-26 15h03.22.047040 -0500,
0.01,-1,0.2,55,55,0,left,0.6812462919624522,None,0,55,55,25,56.3028717499692,,,,56.29469379095826,56.89066375000402,57.57557266601361,left,0.6812462919624522,None,demo,001,2025-01-26_15h03.15.556,contrast_sensitivity,2024.2.4,None,2025-01-26 15h03.22.047040 -0500,
1e-07,1,0.4,56,56,0,right,0.6756901249755174,None,0,56,56,1,57.58620512497146,,,,57.57745387498289,58.17521404102445,58.85484808299225,right,0.6756901249755174,None,demo,001,2025-01-26_15h03.15.556,contrast_sensitivity,2024.2.4,None,2025-01-26 15h03.22.047040 -0500,
0.1,-1,0.1,57,57,0,left,0.2217134579550475,None,0,57,57,40,58.863578957971185,,,,58.85676583298482,59.45310241600964,59.688950665993616,left,0.2217134579550475,None,demo,001,2025-01-26_15h03.15.556,contrast_sensitivity,2024.2.4,None,2025-01-26 15h03.22.047040 -0500,
1e-05,-1,0.1,58,58,0,left,0.8394414159702137,None,0,58,58,37,59.697327250032686,,,,59.69084604096133,60.28640324994922,61.13874125003349,left,0.8394414159702137,None,demo,001,2025-01-26_15h03.15.556,contrast_sensitivity,2024.2.4,None,2025-01-26 15h03.22.047040 -0500,
0.1,-1,0.025,59,59,0,right,0.737953917006962,None,0,59,59,68,61.14757912501227,,,,61.140778583008796,61.75372458295897,62.505219999933615,right,0.737953917006962,None,demo,001,2025-01-26_15h03.15.556,contrast_sensitivity,2024.2.4,None,2025-01-26 15h03.22.047040 -0500,
0.001,-1,0.05,60,60,0,left,0.40481387497857213,None,0,60,60,52,62.51402041595429,,,,62.507184665999375,63.10312283295207,63.52232483297121,left,0.40481387497857213,None,demo,001,2025-01-26_15h03.15.556,contrast_sensitivity,2024.2.4,None,2025-01-26 15h03.22.047040 -0500,
1e-09,1,0.4,61,61,0,left,0.38686845800839365,None,0,61,61,0,63.53662779100705,,,,63.524111874983646,64.11987166595645,64.50960087496787,left,0.38686845800839365,None,demo,001,2025-01-26_15h03.15.556,contrast_sensitivity,2024.2.4,None,2025-01-26 15h03.22.047040 -0500,
0.1,1,0.2,62,62,0,right,0.0838239579461515,None,0,62,62,19,64.51963200001046,,,,64.51149545796216,65.10790758300573,65.19340150000062,right,0.0838239579461515,None,demo,001,2025-01-26_15h03.15.556,contrast_sensitivity,2024.2.4,None,2025-01-26 15h03.22.047040 -0500,
1e-07,1,0.1,63,63,0,left,0.2938956250436604,None,0,63,63,29,65.20200545794796,,,,65.19520266598556,65.78985912492499,66.08891462499741,left,0.2938956250436604,None,demo,001,2025-01-26_15h03.15.556,contrast_sensitivity,2024.2.4,None,2025-01-26 15h03.22.047040 -0500,
1e-05,1,0.1,64,64,0,right,0.4451837500091642,None,0,64,64,30,66.09757779096253,,,,66.09088062494993,66.68667291593738,67.13941587496083,right,0.4451837500091642,None,demo,001,2025-01-26_15h03.15.556,contrast_sensitivity,2024.2.4,None,2025-01-26 15h03.22.047040 -0500,
1e-09,-1,0.4,65,65,0,left,0.48900941701140255,None,0,65,65,7,67.14717849995941,,,,67.14121283299755,67.73664945794735,68.23686808301136,left,0.48900941701140255,None,demo,001,2025-01-26_15h03.15.556,contrast_sensitivity,2024.2.4,None,2025-01-26 15h03.22.047040 -0500,
1e-09,1,0.2,66,66,0,left,0.5322675829520449,None,0,66,66,14,68.2407647499349,,,,68.23747883294709,68.82438004098367,69.37207658297848,left,0.5322675829520449,None,demo,001,2025-01-26_15h03.15.556,contrast_sensitivity,2024.2.4,None,2025-01-26 15h03.22.047040 -0500,
1e-05,1,0.4,67,67,0,left,0.35202279197983444,None,0,67,67,2,69.38656174996868,,,,69.37393316603266,69.96961104101501,70.32628187502269,left,0.35202279197983444,None,demo,001,2025-01-26_15h03.15.556,contrast_sensitivity,2024.2.4,None,2025-01-26 15h03.22.047040 -0500,
1.0,-1,0.025,68,68,0,left,0.21670070802792907,None,0,68,68,69,70.3362306660274,,,,70.32807333301753,70.9249575829599,71.15483649994712,left,0.21670070802792907,None,demo,001,2025-01-26_15h03.15.556,contrast_sensitivity,2024.2.4,None,2025-01-26 15h03.22.047040 -0500,
1e-05,1,0.05,69,69,0,right,0.32836700009647757,None,0,69,69,44,71.1636441659648,,,,71.15686833299696,71.75318545801565,72.08883437502664,right,0.32836700009647757,None,demo,001,2025-01-26_15h03.15.556,contrast_sensitivity,2024.2.4,None,2025-01-26 15h03.22.047040 -0500,
1.0,-1,0.1,70,0,1,left,0.22416804207023233,None,1,0,70,41,72.09729287493974,,,,72.09077262494247,72.68638241593726,72.92208479100373,left,0.22416804207023233,None,demo,001,2025-01-26_15h03.15.556,contrast_sensitivity,2024.2.4,None,2025-01-26 15h03.22.047040 -0500,
1e-07,-1,0.025,71,1,1,left,0.4120954170357436,None,1,1,71,64,72.93064987496473,,,,72.9240648749983,73.51973066595383,73.93787008302752,left,0.4120954170357436,None,demo,001,2025-01-26_15h03.15.556,contrast_sensitivity,2024.2.4,None,2025-01-26 15h03.22.047040 -0500,
1e-05,1,0.4,72,2,1,right,0.1380830000853166,None,1,2,72,2,73.94310166593641,,,,73.93927883298602,74.53638058295473,74.68939833296463,right,0.1380830000853166,None,demo,001,2025-01-26_15h03.15.556,contrast_sensitivity,2024.2.4,None,2025-01-26 15h03.22.047040 -0500,
0.1,1,0.1,73,3,1,right,0.0922997499583289,None,1,3,73,33,74.70320745802019,,,,74.69138308300171,75.28818749997299,75.38672466599382,right,0.0922997499583289,None,demo,001,2025-01-26_15h03.15.556,contrast_sensitivity,2024.2.4,None,2025-01-26 15h03.22.047040 -0500,
1e-05,1,0.025,74,4,1,right,0.39562883402686566,None,1,4,74,58,75.39144266594667,,,,75.3877603749279,75.97481691592839,76.3763209580211,right,0.39562883402686566,None,demo,001,2025-01-26_15h03.15.556,contrast_sensitivity,2024.2.4,None,2025-01-26 15h03.22.047040 -0500,
1e-07,-1,0.2,75,5,1,left,0.3823424590518698,None,1,5,75,22,76.38513583294116,,,,76.37842054094654,76.97512037493289,77.35901095799636,left,0.3823424590518698,None,demo,001,2025-01-26_15h03.15.556,contrast_sensitivity,2024.2.4,None,2025-01-26 15h03.22.047040 -0500,
0.1,-1,0.05,76,6,1,left,0.1971969590522349,None,1,6,76,54,77.36971150001045,,,,77.36096641595941,77.95725645800121,78.15986345801502,left,0.1971969590522349,None,demo,001,2025-01-26_15h03.15.556,contrast_sensitivity,2024.2.4,None,2025-01-26 15h03.22.047040 -0500,
0.1,-1,0.1,77,7,1,left,0.11745212506502867,None,1,7,77,40,78.168770249933,,,,78.16171945794486,78.75795825000387,78.88927099993452,left,0.11745212506502867,None,demo,001,2025-01-26_15h03.15.556,contrast_sensitivity,2024.2.4,None,2025-01-26 15h03.22.047040 -0500,
0.01,-1,0.4,78,8,1,left,0.1827724170871079,None,1,8,78,11,78.89712633297313,,,,78.89160745800473,79.48661112494301,79.67258662497625,left,0.1827724170871079,None,demo,001,2025-01-26_15h03.15.556,contrast_sensitivity,2024.2.4,None,2025-01-26 15h03.22.047040 -0500,
1e-05,-1,0.05,79,9,1,left,0.3404818749986589,None,1,9,79,51,79.68083208298776,,,,79.67442024999764,80.26891054096632,80.62196970800869,left,0.3404818749986589,None,demo,001,2025-01-26_15h03.15.556,contrast_sensitivity,2024.2.4,None,2025-01-26 15h03.22.047040 -0500,
0.001,-1,0.2,80,10,1,left,0.5023904159897938,None,1,10,80,24,80.62998737499584,,,,80.62381908297539,81.21994258300401,81.72595649992581,left,0.5023904159897938,None,demo,001,2025-01-26_15h03.15.556,contrast_sensitivity,2024.2.4,None,2025-01-26 15h03.22.047040 -0500,
0.1,-1,0.025,81,11,1,left,0.3645610419334844,None,1,11,81,68,81.73624958295841,,,,81.72808449994773,82.32479049998801,82.69272345793433,left,0.3645610419334844,None,demo,001,2025-01-26_15h03.15.556,contrast_sensitivity,2024.2.4,None,2025-01-26 15h03.22.047040 -0500,
1e-07,-1,0.1,82,12,1,right,0.4641857499955222,None,1,12,82,36,82.7031049579382,,,,82.69427145796362,83.29115520801861,83.75906620803289,right,0.4641857499955222,None,demo,001,2025-01-26_15h03.15.556,contrast_sensitivity,2024.2.4,None,2025-01-26 15h03.22.047040 -0500,
0.1,-1,0.2,83,13,1,left,0.2797244999092072,None,1,13,83,26,83.76951449993066,,,,83.76128245797008,84.35753833292983,84.64274183299858,left,0.2797244999092072,None,demo,001,2025-01-26_15h03.15.556,contrast_sensitivity,2024.2.4,None,2025-01-26 15h03.22.047040 -0500,
0.001,1,0.05,84,14,1,left,0.4224364999681711,None,1,14,84,45,84.6528613329865,,,,84.64476558298338,85.24184708297253,85.67200349993072,left,0.4224364999681711,None,demo,001,2025-01-26_15h03.15.556,contrast_sensitivity,2024.2.4,None,2025-01-26 15h03.22.047040 -0500,
0.01,-1,0.1,85,15,1,left,0.5175410419469699,None,1,15,85,39,85.68075170798693,,,,85.67399312497582,86.26965262496378,86.79261212493293,left,0.5175410419469699,None,demo,001,2025-01-26_15h03.15.556,contrast_sensitivity,2024.2.4,None,2025-01-26 15h03.22.047040 -0500,
1e-07,1,0.1,86,16,1,right,0.4375638330820948,None,1,16,86,29,86.80297724995762,,,,86.7946367500117,87.38873370795045,87.8388248749543,right,0.4375638330820948,None,demo,001,2025-01-26_15h03.15.556,contrast_sensitivity,2024.2.4,None,2025-01-26 15h03.22.047040 -0500,
0.01,1,0.025,87,17,1,left,0.6457514580106363,None,1,17,87,60,87.84752012498211,,,,87.84081833297387,88.4364443749655,89.08847045793664,left,0.6457514580106363,None,demo,001,2025-01-26_15h03.15.556,contrast_sensitivity,2024.2.4,None,2025-01-26 15h03.22.047040 -0500,
1e-09,1,0.025,88,18,1,left,0.45277791703119874,None,1,18,88,56,89.09725345799234,,,,89.09040300000925,89.68637758295517,90.14247020799667,left,0.45277791703119874,None,demo,001,2025-01-26_15h03.15.556,contrast_sensitivity,2024.2.4,None,2025-01-26 15h03.22.047040 -0500,
1e-05,-1,0.2,89,19,1,left,0.6697598330210894,None,1,19,89,23,90.15284783300012,,,,90.143690665951,90.740973707987,91.42274662503041,left,0.6697598330210894,None,demo,001,2025-01-26_15h03.15.556,contrast_sensitivity,2024.2.4,None,2025-01-26 15h03.22.047040 -0500,
1e-09,1,0.1,90,20,1,left,0.6363124579656869,None,1,20,90,28,91.43082962499466,,,,91.42496387497522,92.01976554095745,92.65826754097361,left,0.6363124579656869,None,demo,001,2025-01-26_15h03.15.556,contrast_sensitivity,2024.2.4,None,2025-01-26 15h03.22.047040 -0500,
0.1,1,0.05,91,21,1,right,0.23003541596699506,None,1,21,91,47,92.66961783298757,,,,92.66014454094693,93.25305795797613,93.48836566600949,right,0.23003541596699506,None,demo,001,2025-01-26_15h03.15.556,contrast_sensitivity,2024.2.4,None,2025-01-26 15h03.22.047040 -0500,
0.1,-1,0.4,92,22,1,left,0.3246198750566691,None,1,22,92,12,93.4957532909466,,,,93.49038183293305,94.08642616600264,94.422047458007,left,0.3246198750566691,None,demo,001,2025-01-26_15h03.15.556,contrast_sensitivity,2024.2.4,None,2025-01-26 15h03.22.047040 -0500,
1.0,-1,0.2,93,23,1,left,0.41919174999929965,None,1,23,93,27,94.4307344580302,,,,94.42393308295868,95.01983875001315,95.44247187499423,left,0.41919174999929965,None,demo,001,2025-01-26_15h03.15.556,contrast_sensitivity,2024.2.4,None,2025-01-26 15h03.22.047040 -0500,
1e-07,-1,0.05,94,24,1,left,0.790197208058089,None,1,24,94,50,95.45288949995302,,,,95.44469070795458,96.04050549992826,96.8385573750129,left,0.790197208058089,None,demo,001,2025-01-26_15h03.15.556,contrast_sensitivity,2024.2.4,None,2025-01-26 15h03.22.047040 -0500,
1e-05,1,0.1,95,25,1,left,0.4681917920242995,None,1,25,95,30,96.84712787496392,,,,96.8405293750111,97.4367889999412,97.90832112496719,left,0.4681917920242995,None,demo,001,2025-01-26_15h03.15.556,contrast_sensitivity,2024.2.4,None,2025-01-26 15h03.22.047040 -0500,
1.0,1,0.2,96,26,1,right,0.09792420908343047,None,1,26,96,20,97.9197869580239,,,,97.91048091603443,98.50303520797752,98.60525875003077,right,0.09792420908343047,None,demo,001,2025-01-26_15h03.15.556,contrast_sensitivity,2024.2.4,None,2025-01-26 15h03.22.047040 -0500,
0.001,1,0.2,97,27,1,right,0.6386679999995977,None,1,27,97,17,98.61326883302536,,,,98.60721554094926,99.20321458298713,99.85534104099497,right,0.6386679999995977,None,demo,001,2025-01-26_15h03.15.556,contrast_sensitivity,2024.2.4,None,2025-01-26 15h03.22.047040 -0500,
1e-09,-1,0.4,98,28,1,left,0.4103378750151023,None,1,28,98,7,99.86320733302273,,,,99.8574107909808,100.45759587502107,100.87266174994875,left,0.4103378750151023,None,demo,001,2025-01-26_15h03.15.556,contrast_sensitivity,2024.2.4,None,2025-01-26 15h03.22.047040 -0500,
0.1,1,0.2,99,29,1,right,0.09360345895402133,None,1,29,99,19,100.88076070800889,,,,100.8745040409267,101.4693539160071,101.57102704094723,right,0.09360345895402133,None,demo,001,2025-01-26_15h03.15.556,contrast_sensitivity,2024.2.4,None,2025-01-26 15h03.22.047040 -0500,
0.01,-1,0.025,100,30,1,left,0.6360582920024171,None,1,30,100,67,101.57910083292518,,,,101.57301416597329,102.16983016603626,102.8232702499954,left,0.6360582920024171,None,demo,001,2025-01-26_15h03.15.556,contrast_sensitivity,2024.2.4,None,2025-01-26 15h03.22.047040 -0500,
1e-09,-1,0.1,101,31,1,left,0.5588261249940842,None,1,31,101,35,102.83655000000726,,,,102.82540583296213,103.42001104098745,103.98882362502627,left,0.5588261249940842,None,demo,001,2025-01-26_15h03.15.556,contrast_sensitivity,2024.2.4,None,2025-01-26 15h03.22.047040 -0500,
1.0,-1,0.025,102,32,1,left,0.0804363340139389,None,1,32,102,69,103.99743612494785,,,,103.99097520799842,104.58650187496096,104.67256133293267,left,0.0804363340139389,None,demo,001,2025-01-26_15h03.15.556,contrast_sensitivity,2024.2.4,None,2025-01-26 15h03.22.047040 -0500,
1e-07,-1,0.4,103,33,1,left,0.8569812499918044,None,1,33,103,8,104.68076183297671,,,,104.67470787500497,105.26983920799103,106.13882120803464,left,0.8569812499918044,None,demo,001,2025-01-26_15h03.15.556,contrast_sensitivity,2024.2.4,None,2025-01-26 15h03.22.047040 -0500,
1.0,1,0.4,104,34,1,right,0.10729541699402034,None,1,34,104,6,106.14743466593791,,,,106.14080912503414,106.73643808299676,106.85508350003511,right,0.10729541699402034,None,demo,001,2025-01-26_15h03.15.556,contrast_sensitivity,2024.2.4,None,2025-01-26 15h03.22.047040 -0500,
1e-07,1,0.05,105,35,1,right,0.42533137497957796,None,1,35,105,43,106.86303666594904,,,,106.85718283301685,107.45340204099193,107.8879722909769,right,0.42533137497957796,None,demo,001,2025-01-26_15h03.15.556,contrast_sensitivity,2024.2.4,None,2025-01-26 15h03.22.047040 -0500,
1e-09,1,0.4,106,36,1,right,1.660238750046119,None,1,36,106,0,107.89599916595034,,,,107.889748333022,108.48658012493979,110.15555458294693,right,1.660238750046119,None,demo,001,2025-01-26_15h03.15.556,contrast_sensitivity,2024.2.4,None,2025-01-26 15h03.22.047040 -0500,
1e-05,-1,0.4,107,37,1,left,0.4526423749048263,None,1,37,107,9,110.16412762494292,,,,110.1574559159344,110.75304700003471,111.20882120798342,left,0.4526423749048263,None,demo,001,2025-01-26_15h03.15.556,contrast_sensitivity,2024.2.4,None,2025-01-26 15h03.22.047040 -0500,
0.001,1,0.1,108,38,1,right,0.4785089580109343,None,1,38,108,31,111.2195423329249,,,,111.2110040410189,111.80316029093228,112.28851820796262,right,0.4785089580109343,None,demo,001,2025-01-26_15h03.15.556,contrast_sensitivity,2024.2.4,None,2025-01-26 15h03.22.047040 -0500,
1.0,1,0.1,109,39,1,right,0.17119229200761765,None,1,39,109,34,112.29729612497613,,,,112.29046229098458,112.90339224995114,113.08931066596415,right,0.17119229200761765,None,demo,001,2025-01-26_15h03.15.556,contrast_sensitivity,2024.2.4,None,2025-01-26 15h03.22.047040 -0500,
1e-09,1,0.2,110,40,1,right,0.3018644170369953,None,1,40,110,14,113.09783074993175,,,,113.09125054103788,113.68645083298907,114.00533808302134,right,0.3018644170369953,None,demo,001,2025-01-26_15h03.15.556,contrast_sensitivity,2024.2.4,None,2025-01-26 15h03.22.047040 -0500,
0.01,-1,0.2,111,41,1,left,0.3376372919883579,None,1,41,111,25,114.01982458296698,,,,114.00721454096492,114.60293345793616,114.94244733301457,left,0.3376372919883579,None,demo,001,2025-01-26_15h03.15.556,contrast_sensitivity,2024.2.4,None,2025-01-26 15h03.22.047040 -0500,
1e-09,-1,0.2,112,42,1,left,0.44363208301365376,None,1,42,112,21,114.95303629094269,,,,114.94422754098196,115.54200250003487,115.98911804100499,left,0.44363208301365376,None,demo,001,2025-01-26_15h03.15.556,contrast_sensitivity,2024.2.4,None,2025-01-26 15h03.22.047040 -0500,
1e-05,-1,0.025,113,43,1,left,0.6631239170674235,None,1,43,113,65,115.99735829094425,,,,115.99112204101402,116.58642829093151,117.25561695802025,left,0.6631239170674235,None,demo,001,2025-01-26_15h03.15.556,contrast_sensitivity,2024.2.4,None,2025-01-26 15h03.22.047040 -0500,
1.0,-1,0.4,114,44,1,left,0.21834074996877462,None,1,44,114,13,117.26408783299848,,,,117.25756008294411,117.85316116595641,118.07623241597321,left,0.21834074996877462,None,demo,001,2025-01-26_15h03.15.556,contrast_sensitivity,2024.2.4,None,2025-01-26 15h03.22.047040 -0500,
0.001,1,0.025,115,45,1,right,0.8366337500046939,None,1,45,115,59,118.0862253329251,,,,118.07836724992376,118.67491808300838,119.52238220802974,right,0.8366337500046939,None,demo,001,2025-01-26_15h03.15.556,contrast_sensitivity,2024.2.4,None,2025-01-26 15h03.22.047040 -0500,
0.001,-1,0.4,116,46,1,left,0.5939321659971029,None,1,46,116,10,119.53107054100838,,,,119.52440470794681,120.11966241593473,120.72209870803636,left,0.5939321659971029,None,demo,001,2025-01-26_15h03.15.556,contrast_sensitivity,2024.2.4,None,2025-01-26 15h03.22.047040 -0500,
0.01,1,0.4,117,47,1,right,0.7132665000390261,None,1,47,117,4,120.7307120829355,,,,120.72427658294328,121.31914741592482,122.03866358299274,right,0.7132665000390261,None,demo,001,2025-01-26_15h03.15.556,contrast_sensitivity,2024.2.4,None,2025-01-26 15h03.22.047040 -0500,
0.01,-1,0.05,118,48,1,left,0.7450248750392348,None,1,48,118,53,122.05315783293918,,,,122.04045174992643,122.63641183299478,123.38896620797459,left,0.7450248750392348,None,demo,001,2025-01-26_15h03.15.556,contrast_sensitivity,2024.2.4,None,2025-01-26 15h03.22.047040 -0500,
0.001,1,0.4,119,49,1,left,0.4950668750097975,None,1,49,119,3,123.39767629094422,,,,123.39099016599357,123.98629912501201,124.4888578329701,left,0.4950668750097975,None,demo,001,2025-01-26_15h03.15.556,contrast_sensitivity,2024.2.4,None,2025-01-26 15h03.22.047040 -0500,
1e-07,1,0.2,120,50,1,right,0.9165746249491349,None,1,50,120,15,124.49786366603803,,,,124.4910169999348,125.08575933298562,126.00474949995987,right,0.9165746249491349,None,demo,001,2025-01-26_15h03.15.556,contrast_sensitivity,2024.2.4,None,2025-01-26 15h03.22.047040 -0500,
1e-09,-1,0.05,121,51,1,right,0.6651351669570431,None,1,51,121,49,126.01323129097,,,,126.00665354100056,126.60319129098207,127.27216766600031,right,0.6651351669570431,None,demo,001,2025-01-26_15h03.15.556,contrast_sensitivity,2024.2.4,None,2025-01-26 15h03.22.047040 -0500,
0.001,-1,0.05,122,52,1,right,0.796657916973345,None,1,52,122,52,127.2809310000157,,,,127.27397041593213,127.86877254093997,128.67157087498344,right,0.796657916973345,None,demo,001,2025-01-26_15h03.15.556,contrast_sensitivity,2024.2.4,None,2025-01-26 15h03.22.047040 -0500,
1.0,-1,0.05,123,53,1,left,0.4803352920571342,None,1,53,123,55,128.6805970829446,,,,128.67372629093006,129.26992749993224,129.75628570793197,left,0.4803352920571342,None,demo,001,2025-01-26_15h03.15.556,contrast_sensitivity,2024.2.4,None,2025-01-26 15h03.22.047040 -0500,
1e-05,1,0.05,124,54,1,right,0.43044170807115734,None,1,54,124,44,129.76486245798878,,,,129.75812150002457,130.3548649159493,130.78868975001387,right,0.43044170807115734,None,demo,001,2025-01-26_15h03.15.556,contrast_sensitivity,2024.2.4,None,2025-01-26 15h03.22.047040 -0500,
1.0,1,0.025,125,55,1,right,0.1479639169992879,None,1,55,125,62,130.79705895797815,,,,130.79063624993432,131.38623479101807,131.53790808294434,right,0.1479639169992879,None,demo,001,2025-01-26_15h03.15.556,contrast_sensitivity,2024.2.4,None,2025-01-26 15h03.22.047040 -0500,
0.01,1,0.05,126,56,1,right,0.5815109580289572,None,1,56,126,46,131.54585424996912,,,,131.53953204094432,132.13668137497734,132.7218156249728,right,0.5815109580289572,None,demo,001,2025-01-26_15h03.15.556,contrast_sensitivity,2024.2.4,None,2025-01-26 15h03.22.047040 -0500,
0.1,1,0.025,127,57,1,right,0.4788376250071451,None,1,57,127,61,132.7299611249473,,,,132.72372512496077,133.3243235410191,133.8059549999889,right,0.4788376250071451,None,demo,001,2025-01-26_15h03.15.556,contrast_sensitivity,2024.2.4,None,2025-01-26 15h03.22.047040 -0500,
1e-09,-1,0.025,128,58,1,right,1.1459009579848498,None,1,58,128,63,133.81444820796605,,,,133.80775345803704,134.40334783296566,135.55503058293834,right,1.1459009579848498,None,demo,001,2025-01-26_15h03.15.556,contrast_sensitivity,2024.2.4,None,2025-01-26 15h03.22.047040 -0500,
0.01,1,0.2,129,59,1,right,0.5379914999939501,None,1,59,129,18,135.56341095792595,,,,135.55696941597853,136.15211920801084,136.69253870798275,right,0.5379914999939501,None,demo,001,2025-01-26_15h03.15.556,contrast_sensitivity,2024.2.4,None,2025-01-26 15h03.22.047040 -0500,
0.1,1,0.4,130,60,1,right,0.3157553750788793,None,1,60,130,5,136.70295516599435,,,,136.69392512494233,137.30332920793444,137.62380204093643,right,0.3157553750788793,None,demo,001,2025-01-26_15h03.15.556,contrast_sensitivity,2024.2.4,None,2025-01-26 15h03.22.047040 -0500,
1e-07,1,0.4,131,61,1,right,0.607337124994956,None,1,61,131,1,137.6366116249701,,,,137.62567199999467,138.21968045795802,138.8384410829749,right,0.607337124994956,None,demo,001,2025-01-26_15h03.15.556,contrast_sensitivity,2024.2.4,None,2025-01-26 15h03.22.047040 -0500,
1e-05,-1,0.1,132,62,1,left,0.39267937489785254,None,1,62,132,37,138.84709695796482,,,,138.84036729100626,139.4364160830155,139.83842983294744,left,0.39267937489785254,None,demo,001,2025-01-26_15h03.15.556,contrast_sensitivity,2024.2.4,None,2025-01-26 15h03.22.047040 -0500,
1.0,1,0.05,133,63,1,right,0.45330104196909815,None,1,63,133,48,139.84702037496027,,,,139.84052945801523,140.43565758294426,140.89164716599043,right,0.45330104196909815,None,demo,001,2025-01-26_15h03.15.556,contrast_sensitivity,2024.2.4,None,2025-01-26 15h03.22.047040 -0500,
0.001,-1,0.025,134,64,1,right,0.3888403750024736,None,1,64,134,66,140.90242033300456,,,,140.89327412494458,141.49126004101709,141.88858775002882,right,0.3888403750024736,None,demo,001,2025-01-26_15h03.15.556,contrast_sensitivity,2024.2.4,None,2025-01-26 15h03.22.047040 -0500,
1e-05,1,0.2,135,65,1,right,0.37321487499866635,None,1,65,135,16,141.89704416599125,,,,141.89048054092564,142.48676354100462,142.87264524993952,right,0.37321487499866635,None,demo,001,2025-01-26_15h03.15.556,contrast_sensitivity,2024.2.4,None,2025-01-26 15h03.22.047040 -0500,
0.001,-1,0.1,136,66,1,right,0.7748659579083323,None,1,66,136,38,142.88031220796984,,,,142.87465679098386,143.47007666598074,144.25470058294013,right,0.7748659579083323,None,demo,001,2025-01-26_15h03.15.556,contrast_sensitivity,2024.2.4,None,2025-01-26 15h03.22.047040 -0500,
0.01,1,0.1,137,67,1,right,0.548732417053543,None,1,67,137,32,144.26340966601856,,,,144.2568098329939,144.8531650409568,145.40639787493274,right,0.548732417053543,None,demo,001,2025-01-26_15h03.15.556,contrast_sensitivity,2024.2.4,None,2025-01-26 15h03.22.047040 -0500,
1e-07,1,0.025,138,68,1,left,0.41873549995943904,None,1,68,138,57,145.4143397079315,,,,145.40830645803362,146.00315150001552,146.42565429094248,left,0.41873549995943904,None,demo,001,2025-01-26_15h03.15.556,contrast_sensitivity,2024.2.4,None,2025-01-26 15h03.22.047040 -0500,
1e-09,1,0.05,139,69,1,left,0.5301936250180006,None,1,69,139,42,146.43624858302064,,,,146.42796020803507,147.02468512498308,147.5588237909833,left,0.5301936250180006,None,demo,001,2025-01-26_15h03.15.556,contrast_sensitivity,2024.2.4,None,2025-01-26 15h03.22.047040 -0500,
1.0,1,0.2,140,0,2,right,0.22506908304058015,None,2,0,140,20,147.56951029098127,,,,147.56029945798218,148.1527977909427,148.38852687494364,right,0.22506908304058015,None,demo,001,2025-01-26_15h03.15.556,contrast_sensitivity,2024.2.4,None,2025-01-26 15h03.22.047040 -0500,
1e-05,-1,0.2,141,1,2,right,0.3251816249685362,None,2,1,141,23,148.39692750002723,,,,148.39048604096752,148.98663808300626,149.3215981660178,right,0.3251816249685362,None,demo,001,2025-01-26_15h03.15.556,contrast_sensitivity,2024.2.4,None,2025-01-26 15h03.22.047040 -0500,
0.001,-1,0.1,142,2,2,right,0.5661072080256417,None,2,2,142,38,149.3305451249471,,,,149.3235843749717,149.91969124996103,150.48873079102486,right,0.5661072080256417,None,demo,001,2025-01-26_15h03.15.556,contrast_sensitivity,2024.2.4,None,2025-01-26 15h03.22.047040 -0500,
0.01,-1,0.025,143,3,2,left,0.3692878750152886,None,2,3,143,67,150.49723412492312,,,,150.49066691601183,151.08649079094175,151.45893279102165,left,0.3692878750152886,None,demo,001,2025-01-26_15h03.15.556,contrast_sensitivity,2024.2.4,None,2025-01-26 15h03.22.047040 -0500,
0.1,-1,0.025,144,4,2,left,0.34888804203365,None,2,4,144,68,151.4695678750286,,,,151.46082891593687,152.05785608303268,152.40967900003307,left,0.34888804203365,None,demo,001,2025-01-26_15h03.15.556,contrast_sensitivity,2024.2.4,None,2025-01-26 15h03.22.047040 -0500,
0.01,1,0.05,145,5,2,right,0.35666158294770867,None,2,5,145,46,152.4195516250329,,,,152.41179120796733,153.0080845829798,153.37196120794397,right,0.35666158294770867,None,demo,001,2025-01-26_15h03.15.556,contrast_sensitivity,2024.2.4,None,2025-01-26 15h03.22.047040 -0500,
1e-09,-1,0.2,146,6,2,right,0.5165954169351608,None,2,6,146,21,153.38019829103723,,,,153.3738617079798,153.9701921659289,154.492635707953,right,0.5165954169351608,None,demo,001,2025-01-26_15h03.15.556,contrast_sensitivity,2024.2.4,None,2025-01-26 15h03.22.047040 -0500,
1e-05,1,0.4,147,7,2,right,0.5653413749532774,None,2,7,147,2,154.50306587503292,,,,154.4945450000232,155.10334575001616,155.67234129097778,right,0.5653413749532774,None,demo,001,2025-01-26_15h03.15.556,contrast_sensitivity,2024.2.4,None,2025-01-26 15h03.22.047040 -0500,
1e-09,1,0.05,148,8,2,right,0.4459539590170607,None,2,8,148,42,155.68057858303655,,,,155.67415974999312,156.26979612500872,156.72173595800996,right,0.4459539590170607,None,demo,001,2025-01-26_15h03.15.556,contrast_sensitivity,2024.2.4,None,2025-01-26 15h03.22.047040 -0500,
1e-05,1,0.025,149,9,2,left,0.3668658329406753,None,2,9,149,58,156.73063604102936,,,,156.72362108295783,157.3197367079556,157.69178583298344,left,0.3668658329406753,None,demo,001,2025-01-26_15h03.15.556,contrast_sensitivity,2024.2.4,None,2025-01-26 15h03.22.047040 -0500,
1.0,1,0.025,150,10,2,right,0.1858996250666678,None,2,10,150,62,157.70298487495165,,,,157.69366649992298,158.29169149999507,158.4883919999702,right,0.1858996250666678,None,demo,001,2025-01-26_15h03.15.556,contrast_sensitivity,2024.2.4,None,2025-01-26 15h03.22.047040 -0500,
1e-07,-1,0.025,151,11,2,right,0.4722193750785664,None,2,11,151,64,158.49722479097545,,,,158.4905780829722,159.0864531659754,159.57227233296726,right,0.4722193750785664,None,demo,001,2025-01-26_15h03.15.556,contrast_sensitivity,2024.2.4,None,2025-01-26 15h03.22.047040 -0500,
0.1,-1,0.1,152,12,2,left,0.30505241593346,None,2,12,152,40,159.58124491595663,,,,159.57448204094544,160.16947224992327,160.48972900002263,left,0.30505241593346,None,demo,001,2025-01-26_15h03.15.556,contrast_sensitivity,2024.2.4,None,2025-01-26 15h03.22.047040 -0500,
1e-05,-1,0.025,153,13,2,left,0.6010056250961497,None,2,13,153,65,160.50304116599727,,,,160.49179608293343,161.08649491600227,161.69339412497357,left,0.6010056250961497,None,demo,001,2025-01-26_15h03.15.556,contrast_sensitivity,2024.2.4,None,2025-01-26 15h03.22.047040 -0500,
1e-09,1,0.025,154,14,2,right,0.40462170902173966,None,2,14,154,56,161.70292487496044,,,,161.69520195794757,162.2910274580354,162.70565683301538,right,0.40462170902173966,None,demo,001,2025-01-26_15h03.15.556,contrast_sensitivity,2024.2.4,None,2025-01-26 15h03.22.047040 -0500,
1e-09,-1,0.4,155,15,2,left,0.47877083299681544,None,2,15,155,7,162.71404887503013,,,,162.70755329099484,163.3076899999287,163.78936745796818,left,0.47877083299681544,None,demo,001,2025-01-26_15h03.15.556,contrast_sensitivity,2024.2.4,None,2025-01-26 15h03.22.047040 -0500,
1e-05,-1,0.4,156,16,2,left,0.5477485000155866,None,2,16,156,9,163.79693704098463,,,,163.7914974159794,164.38674412493128,164.93868074996863,left,0.5477485000155866,None,demo,001,2025-01-26_15h03.15.556,contrast_sensitivity,2024.2.4,None,2025-01-26 15h03.22.047040 -0500,
1e-05,-1,0.05,157,17,2,left,0.39290004095528275,None,2,17,157,51,164.9469745409442,,,,164.94062354101334,165.53654770797584,165.93879762501456,left,0.39290004095528275,None,demo,001,2025-01-26_15h03.15.556,contrast_sensitivity,2024.2.4,None,2025-01-26 15h03.22.047040 -0500,
1e-07,1,0.4,158,18,2,left,0.46666549996007234,None,2,18,158,1,165.94740549998824,,,,165.9407530829776,166.53669604100287,167.01213370799087,left,0.46666549996007234,None,demo,001,2025-01-26_15h03.15.556,contrast_sensitivity,2024.2.4,None,2025-01-26 15h03.22.047040 -0500,
0.1,-1,0.05,159,19,2,left,0.3444786670152098,None,2,19,159,54,167.019560249988,,,,167.01311749999877,167.60501766600646,167.9554899999639,left,0.3444786670152098,None,demo,001,2025-01-26_15h03.15.556,contrast_sensitivity,2024.2.4,None,2025-01-26 15h03.22.047040 -0500,
0.1,1,0.2,160,20,2,right,0.12601183401420712,None,2,20,160,19,167.96420008293353,,,,167.95751095796004,168.5534717909759,168.68882762501016,right,0.12601183401420712,None,demo,001,2025-01-26_15h03.15.556,contrast_sensitivity,2024.2.4,None,2025-01-26 15h03.22.047040 -0500,
1.0,1,0.05,161,21,2,right,0.25363037502393126,None,2,21,161,48,168.69668487494346,,,,168.6909465829376,169.28670229099225,169.5427549580345,right,0.25363037502393126,None,demo,001,2025-01-26_15h03.15.556,contrast_sensitivity,2024.2.4,None,2025-01-26 15h03.22.047040 -0500,
0.01,-1,0.2,162,22,2,right,0.35902866697870195,None,2,22,162,25,169.55296262493357,,,,169.54387087502982,170.14144449995365,170.50515812495723,right,0.35902866697870195,None,demo,001,2025-01-26_15h03.15.556,contrast_sensitivity,2024.2.4,None,2025-01-26 15h03.22.047040 -0500,
1e-07,-1,0.4,163,23,2,right,0.6299869169015437,None,2,23,163,8,170.5134491249919,,,,170.50710379099473,171.1203977080295,171.75607783300802,right,0.6299869169015437,None,demo,001,2025-01-26_15h03.15.556,contrast_sensitivity,2024.2.4,None,2025-01-26 15h03.22.047040 -0500,
0.001,1,0.1,164,24,2,left,0.4247915419982746,None,2,24,164,31,171.7641705829883,,,,171.75801845802926,172.37051441601943,172.80563979095314,left,0.4247915419982746,None,demo,001,2025-01-26_15h03.15.556,contrast_sensitivity,2024.2.4,None,2025-01-26 15h03.22.047040 -0500,
0.001,1,0.4,165,25,2,left,0.3668182499241084,None,2,25,165,3,172.81404870795086,,,,172.8075884160353,173.40338233299553,173.77335983293597,left,0.3668182499241084,None,demo,001,2025-01-26_15h03.15.556,contrast_sensitivity,2024.2.4,None,2025-01-26 15h03.22.047040 -0500,
0.001,1,0.025,166,26,2,left,0.5778619999764487,None,2,26,166,59,173.7856060829945,,,,173.77447741595097,174.37031491601374,174.95593587495387,left,0.5778619999764487,None,demo,001,2025-01-26_15h03.15.556,contrast_sensitivity,2024.2.4,None,2025-01-26 15h03.22.047040 -0500,
0.01,1,0.2,167,27,2,left,0.34345708310138434,None,2,27,167,18,174.96992291603237,,,,174.95786637498531,175.5588107079966,175.90592516597826,left,0.34345708310138434,None,demo,001,2025-01-26_15h03.15.556,contrast_sensitivity,2024.2.4,None,2025-01-26 15h03.22.047040 -0500,
1e-07,-1,0.05,168,28,2,left,0.9110415000468493,None,2,28,168,50,175.91390866599977,,,,175.90773387497757,176.50313716602977,177.42214579100255,left,0.9110415000468493,None,demo,001,2025-01-26_15h03.15.556,contrast_sensitivity,2024.2.4,None,2025-01-26 15h03.22.047040 -0500,
0.01,1,0.025,169,29,2,right,0.31935383297968656,None,2,29,169,60,177.43059508292936,,,,177.42412791599054,178.01980799995363,178.3428655830212,right,0.31935383297968656,None,demo,001,2025-01-26_15h03.15.556,contrast_sensitivity,2024.2.4,None,2025-01-26 15h03.22.047040 -0500,
1.0,-1,0.4,170,30,2,left,0.3464197909925133,None,2,30,170,13,178.35295445797965,,,,178.34506574994884,178.94169183296617,179.29243362497073,left,0.3464197909925133,None,demo,001,2025-01-26_15h03.15.556,contrast_sensitivity,2024.2.4,None,2025-01-26 15h03.22.047040 -0500,
1e-07,1,0.05,171,31,2,left,0.4239499589893967,None,2,31,171,43,179.30318058293778,,,,179.29443708295003,179.8913125830004,180.32199145795312,left,0.4239499589893967,None,demo,001,2025-01-26_15h03.15.556,contrast_sensitivity,2024.2.4,None,2025-01-26 15h03.22.047040 -0500,
1.0,-1,0.025,172,32,2,left,0.27324391703587025,None,2,32,172,69,180.33072374993935,,,,180.32386624999344,180.91982045792975,181.2056220829254,left,0.27324391703587025,None,demo,001,2025-01-26_15h03.15.556,contrast_sensitivity,2024.2.4,None,2025-01-26 15h03.22.047040 -0500,
1.0,1,0.4,173,33,2,right,0.18020570906810462,None,2,33,173,6,181.21411166596226,,,,181.2076022499241,181.82001841603778,182.00595570798032,right,0.18020570906810462,None,demo,001,2025-01-26_15h03.15.556,contrast_sensitivity,2024.2.4,None,2025-01-26 15h03.22.047040 -0500,
1.0,-1,0.1,174,34,2,left,0.2217769999988377,None,2,34,174,41,182.0138692909386,,,,182.0079743330134,182.60323999996763,182.83898674999364,left,0.2217769999988377,None,demo,001,2025-01-26_15h03.15.556,contrast_sensitivity,2024.2.4,None,2025-01-26 15h03.22.047040 -0500,
0.001,-1,0.2,175,35,2,left,0.4306671250378713,None,2,35,175,24,182.85330416599754,,,,182.84112641599495,183.43670670792926,183.87191324995365,left,0.4306671250378713,None,demo,001,2025-01-26_15h03.15.556,contrast_sensitivity,2024.2.4,None,2025-01-26 15h03.22.047040 -0500,
1.0,-1,0.2,176,36,2,left,0.10021408298052847,None,2,36,176,27,183.88008387503214,,,,183.87388741597533,184.47075704101007,184.5764592909254,left,0.10021408298052847,None,demo,001,2025-01-26_15h03.15.556,contrast_sensitivity,2024.2.4,None,2025-01-26 15h03.22.047040 -0500,
1e-09,1,0.2,177,37,2,left,0.5213988339528441,None,2,37,177,14,184.58615266601555,,,,184.57845254102722,185.17468170798384,185.70508166600484,left,0.5213988339528441,None,demo,001,2025-01-26_15h03.15.556,contrast_sensitivity,2024.2.4,None,2025-01-26 15h03.22.047040 -0500,
0.01,-1,0.4,178,38,2,right,0.37183866603299975,None,2,38,178,11,185.71401745802723,,,,185.7070760410279,186.30307120794896,186.68927533295937,right,0.37183866603299975,None,demo,001,2025-01-26_15h03.15.556,contrast_sensitivity,2024.2.4,None,2025-01-26 15h03.22.047040 -0500,
1e-05,-1,0.1,179,39,2,left,0.7066350829554722,None,2,39,179,37,186.69814854103606,,,,186.69155020802282,187.28631966596004,188.00561287498567,left,0.7066350829554722,None,demo,001,2025-01-26_15h03.15.556,contrast_sensitivity,2024.2.4,None,2025-01-26 15h03.22.047040 -0500,
1e-07,-1,0.2,180,40,2,left,0.3567317919805646,None,2,40,180,22,188.0138762909919,,,,188.00750366598368,188.60314654093236,188.9720339999767,left,0.3567317919805646,None,demo,001,2025-01-26_15h03.15.556,contrast_sensitivity,2024.2.4,None,2025-01-26 15h03.22.047040 -0500,
1e-09,-1,0.05,181,41,2,left,0.3470022500259802,None,2,41,181,49,188.98078570794314,,,,188.9739973329706,189.57000333303586,189.9226639160188,left,0.3470022500259802,None,demo,001,2025-01-26_15h03.15.556,contrast_sensitivity,2024.2.4,None,2025-01-26 15h03.22.047040 -0500,
1e-05,1,0.05,182,42,2,left,0.37572425010148436,None,2,42,182,44,189.93110866600182,,,,189.92451741592959,190.52022166596726,190.90522733295802,left,0.37572425010148436,None,demo,001,2025-01-26_15h03.15.556,contrast_sensitivity,2024.2.4,None,2025-01-26 15h03.22.047040 -0500,
1e-09,-1,0.1,183,43,2,left,0.35827208298724145,None,2,43,183,35,190.91382479097228,,,,190.90711962501518,191.5035495830234,191.87220570794307,left,0.35827208298724145,None,demo,001,2025-01-26_15h03.15.556,contrast_sensitivity,2024.2.4,None,2025-01-26 15h03.22.047040 -0500,
1e-09,1,0.4,184,44,2,left,0.3790585419628769,None,2,44,184,0,191.88057899998967,,,,191.87427287502214,192.469860333018,192.8555592909688,left,0.3790585419628769,None,demo,001,2025-01-26_15h03.15.556,contrast_sensitivity,2024.2.4,None,2025-01-26 15h03.22.047040 -0500,
0.001,-1,0.4,185,45,2,left,0.6107930829748511,None,2,45,185,10,192.86417337495368,,,,192.85741045803297,193.45311012503225,194.0716395409545,left,0.6107930829748511,None,demo,001,2025-01-26_15h03.15.556,contrast_sensitivity,2024.2.4,None,2025-01-26 15h03.22.047040 -0500,
0.1,1,0.05,186,46,2,right,0.41974287503398955,None,2,46,186,47,194.08046204096172,,,,194.07366724999156,194.67001870798413,195.09292762493715,right,0.41974287503398955,None,demo,001,2025-01-26_15h03.15.556,contrast_sensitivity,2024.2.4,None,2025-01-26 15h03.22.047040 -0500,
1e-07,1,0.2,187,47,2,right,0.4579645829508081,None,2,47,187,15,195.1028537909733,,,,195.0952257909812,195.69090508297086,196.1573980000103,right,0.4579645829508081,None,demo,001,2025-01-26_15h03.15.556,contrast_sensitivity,2024.2.4,None,2025-01-26 15h03.22.047040 -0500,
0.01,-1,0.05,188,48,2,left,0.5415800829650834,None,2,48,188,53,196.16942233301234,,,,196.1592583330348,196.75312379095703,197.3062529999297,left,0.5415800829650834,None,demo,001,2025-01-26_15h03.15.556,contrast_sensitivity,2024.2.4,None,2025-01-26 15h03.22.047040 -0500,
0.01,1,0.1,189,49,2,left,0.5384860830381513,None,2,49,189,32,197.31503012496978,,,,197.30831699992996,197.9031477079261,198.45592658303212,left,0.5384860830381513,None,demo,001,2025-01-26_15h03.15.556,contrast_sensitivity,2024.2.4,None,2025-01-26 15h03.22.047040 -0500,
0.1,-1,0.4,190,50,2,left,0.3445677920244634,None,2,50,190,12,198.46431762503926,,,,198.4578215830261,199.053197250003,199.40577374992426,left,0.3445677920244634,None,demo,001,2025-01-26_15h03.15.556,contrast_sensitivity,2024.2.4,None,2025-01-26 15h03.22.047040 -0500,
0.1,1,0.4,191,51,2,right,0.35475358297117054,None,2,51,191,5,199.4137597499648,,,,199.4075550410198,200.00390395801514,200.37164258293342,right,0.35475358297117054,None,demo,001,2025-01-26_15h03.15.556,contrast_sensitivity,2024.2.4,None,2025-01-26 15h03.22.047040 -0500,
0.001,-1,0.025,192,52,2,left,1.1426925000268966,None,2,52,192,66,200.38059075002093,,,,200.3736244579777,200.96993399993517,202.12141937494744,left,1.1426925000268966,None,demo,001,2025-01-26_15h03.15.556,contrast_sensitivity,2024.2.4,None,2025-01-26 15h03.22.047040 -0500,
0.1,1,0.025,193,53,2,right,0.4587571669835597,None,2,53,193,61,202.13058699993417,,,,202.12367237498984,202.71983237494715,203.1884156250162,right,0.4587571669835597,None,demo,001,2025-01-26_15h03.15.556,contrast_sensitivity,2024.2.4,None,2025-01-26 15h03.22.047040 -0500,
0.001,1,0.2,194,54,2,right,0.7110067500034347,None,2,54,194,17,203.19641079101712,,,,203.19062795792706,203.78656033298466,204.50509416603018,right,0.7110067500034347,None,demo,001,2025-01-26_15h03.15.556,contrast_sensitivity,2024.2.4,None,2025-01-26 15h03.22.047040 -0500,
1.0,1,0.1,195,55,2,right,0.27829220797866583,None,2,55,195,34,204.51367012492847,,,,204.50688783300575,205.10322099993937,205.3875339999795,right,0.27829220797866583,None,demo,001,2025-01-26_15h03.15.556,contrast_sensitivity,2024.2.4,None,2025-01-26 15h03.22.047040 -0500,
1.0,-1,0.05,196,56,2,left,0.3526879999553785,None,2,56,196,55,205.39438025001436,,,,205.38889679103158,205.97490762500092,206.33895304100588,left,0.3526879999553785,None,demo,001,2025-01-26_15h03.15.556,contrast_sensitivity,2024.2.4,None,2025-01-26 15h03.22.047040 -0500,
1e-05,1,0.1,197,57,2,left,0.2848771669669077,None,2,57,197,30,206.34737979096826,,,,206.3409093329683,206.935593583039,207.22573145793285,left,0.2848771669669077,None,demo,001,2025-01-26_15h03.15.556,contrast_sensitivity,2024.2.4,None,2025-01-26 15h03.22.047040 -0500,
1e-05,1,0.2,198,58,2,left,0.3408040410140529,None,2,58,198,16,207.23634929093532,,,,207.22771412495058,207.82480937498622,208.1718868330354,left,0.3408040410140529,None,demo,001,2025-01-26_15h03.15.556,contrast_sensitivity,2024.2.4,None,2025-01-26 15h03.22.047040 -0500,
0.001,1,0.05,199,59,2,right,0.4114220830379054,None,2,59,199,45,208.17873308295384,,,,208.1738750829827,208.77003387501463,209.18855212500785,right,0.4114220830379054,None,demo,001,2025-01-26_15h03.15.556,contrast_sensitivity,2024.2.4,None,2025-01-26 15h03.22.047040 -0500,
0.001,-1,0.05,200,60,2,right,0.3214254999766126,None,2,60,200,52,209.1966202079784,,,,209.1904468749417,209.78695300000254,210.12167374999262,right,0.3214254999766126,None,demo,001,2025-01-26_15h03.15.556,contrast_sensitivity,2024.2.4,None,2025-01-26 15h03.22.047040 -0500,
0.1,-1,0.2,201,61,2,left,0.1201021249871701,None,2,61,201,26,210.1307259160094,,,,210.1237109999638,210.72026966593694,210.84250729100313,left,0.1201021249871701,None,demo,001,2025-01-26_15h03.15.556,contrast_sensitivity,2024.2.4,None,2025-01-26 15h03.22.047040 -0500,
1e-09,1,0.1,202,62,2,left,0.42638574994634837,None,2,62,202,28,210.85314720799215,,,,210.8442568749888,211.4411349160364,211.87250412499998,left,0.42638574994634837,None,demo,001,2025-01-26_15h03.15.556,contrast_sensitivity,2024.2.4,None,2025-01-26 15h03.22.047040 -0500,
1e-07,1,0.025,203,63,2,left,0.45245250000152737,None,2,63,203,57,211.88123749999795,,,,211.87445658294018,212.46990808297414,212.92622708296403,left,0.45245250000152737,None,demo,001,2025-01-26_15h03.15.556,contrast_sensitivity,2024.2.4,None,2025-01-26 15h03.22.047040 -0500,
0.01,1,0.4,204,64,2,right,0.505219415994361,None,2,64,204,4,212.93639195803553,,,,212.92808112502098,213.5251427909825,214.03845899994485,right,0.505219415994361,None,demo,001,2025-01-26_15h03.15.556,contrast_sensitivity,2024.2.4,None,2025-01-26 15h03.22.047040 -0500,
1e-07,-1,0.1,205,65,2,right,0.4528539580060169,None,2,65,205,36,214.0458711659303,,,,214.04031729092821,214.63646737497766,215.09214120800607,right,0.4528539580060169,None,demo,001,2025-01-26_15h03.15.556,contrast_sensitivity,2024.2.4,None,2025-01-26 15h03.22.047040 -0500,
0.01,-1,0.1,206,66,2,right,0.36890770797617733,None,2,66,206,39,215.10298304096796,,,,215.09427387500182,215.6864158329554,216.05929170793388,right,0.36890770797617733,None,demo,001,2025-01-26_15h03.15.556,contrast_sensitivity,2024.2.4,None,2025-01-26 15h03.22.047040 -0500,
1e-09,-1,0.025,207,67,2,right,0.42269533406943083,None,2,67,207,63,216.06962437496986,,,,216.06156066595577,216.65768704097718,217.0889775409596,right,0.42269533406943083,None,demo,001,2025-01-26_15h03.15.556,contrast_sensitivity,2024.2.4,None,2025-01-26 15h03.22.047040 -0500,
1e-07,1,0.1,208,68,2,left,0.2933956669876352,None,2,68,208,29,217.09736812498886,,,,217.0911182910204,217.68682245793752,217.98854312498588,left,0.2933956669876352,None,demo,001,2025-01-26_15h03.15.556,contrast_sensitivity,2024.2.4,None,2025-01-26 15h03.22.047040 -0500,
0.1,1,0.1,209,69,2,right,0.24280391703359783,None,2,69,209,33,217.9970214579953,,,,217.99010583292693,218.58654220798053,218.8389020409668,right,0.24280391703359783,None,demo,001,2025-01-26_15h03.15.556,contrast_sensitivity,2024.2.4,None,2025-01-26 15h03.22.047040 -0500,
1e-05,-1,0.2,210,0,3,right,0.30467050010338426,None,3,0,210,23,218.84737920796033,,,,218.84088466595858,219.43648716597818,219.75564574997406,right,0.30467050010338426,None,demo,001,2025-01-26_15h03.15.556,contrast_sensitivity,2024.2.4,None,2025-01-26 15h03.22.047040 -0500,
0.1,-1,0.4,211,1,3,left,0.367802583030425,None,3,1,211,12,219.76475095795467,,,,219.75789783301298,220.35332637501415,220.72627808293328,left,0.367802583030425,None,demo,001,2025-01-26_15h03.15.556,contrast_sensitivity,2024.2.4,None,2025-01-26 15h03.22.047040 -0500,
0.1,1,0.025,212,2,3,left,0.40646266692783684,None,3,2,212,61,220.73630112502724,,,,220.7280993750319,221.32482354098465,221.7389531659428,left,0.40646266692783684,None,demo,001,2025-01-26_15h03.15.556,contrast_sensitivity,2024.2.4,None,2025-01-26 15h03.22.047040 -0500,
0.01,-1,0.05,213,3,3,right,0.4755120410118252,None,3,3,213,53,221.74759091599844,,,,221.7409677079413,222.33672904095147,222.82231420802418,right,0.4755120410118252,None,demo,001,2025-01-26_15h03.15.556,contrast_sensitivity,2024.2.4,None,2025-01-26 15h03.22.047040 -0500,
1e-07,-1,0.025,214,4,3,right,0.344379665912129,None,3,4,214,64,222.83106716594193,,,,222.82429616595618,223.43677124998067,223.78933129098732,right,0.344379665912129,None,demo,001,2025-01-26_15h03.15.556,contrast_sensitivity,2024.2.4,None,2025-01-26 15h03.22.047040 -0500,
1.0,-1,0.1,215,5,3,left,0.2405628750566393,None,3,5,215,41,223.7973388750106,,,,223.79110883292742,224.3865219160216,224.63866475003306,left,0.2405628750566393,None,demo,001,2025-01-26_15h03.15.556,contrast_sensitivity,2024.2.4,None,2025-01-26 15h03.22.047040 -0500,
1.0,-1,0.025,216,6,3,left,0.3106282080989331,None,3,6,216,69,224.6471777909901,,,,224.64067087497097,225.23648979095742,225.5555221249815,left,0.3106282080989331,None,demo,001,2025-01-26_15h03.15.556,contrast_sensitivity,2024.2.4,None,2025-01-26 15h03.22.047040 -0500,
1e-05,1,0.1,217,7,3,left,0.6229367079213262,None,3,7,217,30,225.5632864999352,,,,225.55766691593453,226.15311016596388,226.7886472910177,left,0.6229367079213262,None,demo,001,2025-01-26_15h03.15.556,contrast_sensitivity,2024.2.4,None,2025-01-26 15h03.22.047040 -0500,
0.001,-1,0.2,218,8,3,left,0.2699748750310391,None,3,8,218,24,226.79714662500191,,,,226.79056258301716,227.38605258299503,227.6585058750352,left,0.2699748750310391,None,demo,001,2025-01-26_15h03.15.556,contrast_sensitivity,2024.2.4,None,2025-01-26 15h03.22.047040 -0500,
1e-07,-1,0.2,219,9,3,left,0.52679925004486,None,3,9,219,22,227.66966766596306,,,,227.6605079160072,228.25318554101977,228.78852812503465,left,0.52679925004486,None,demo,001,2025-01-26_15h03.15.556,contrast_sensitivity,2024.2.4,None,2025-01-26 15h03.22.047040 -0500,
0.001,1,0.1,220,10,3,left,0.6563677920494229,None,3,10,220,31,228.79709712497424,,,,228.79057179100346,229.38661633303855,230.0552116249455,left,0.6563677920494229,None,demo,001,2025-01-26_15h03.15.556,contrast_sensitivity,2024.2.4,None,2025-01-26 15h03.22.047040 -0500,
1e-05,1,0.4,221,11,3,left,0.6578655840130523,None,3,11,221,2,230.06393691594712,,,,230.0572034579236,230.65318920800928,231.32268899993505,left,0.6578655840130523,None,demo,001,2025-01-26_15h03.15.556,contrast_sensitivity,2024.2.4,None,2025-01-26 15h03.22.047040 -0500,
1e-09,-1,0.025,222,12,3,left,1.2699472499080002,None,3,12,222,63,231.33650987502187,,,,231.32465945801232,231.91997408296447,233.1935789999552,left,1.2699472499080002,None,demo,001,2025-01-26_15h03.15.556,contrast_sensitivity,2024.2.4,None,2025-01-26 15h03.22.047040 -0500,
1e-07,1,0.2,223,13,3,left,0.5947721670381725,None,3,13,223,15,233.2029332909733,,,,233.19528141594492,233.79306683293544,234.39169583295006,left,0.5947721670381725,None,demo,001,2025-01-26_15h03.15.556,contrast_sensitivity,2024.2.4,None,2025-01-26 15h03.22.047040 -0500,
0.01,1,0.05,224,14,3,left,0.619006457971409,None,3,14,224,46,234.4030529159354,,,,234.39363587496337,234.986948958016,235.60949216596782,left,0.619006457971409,None,demo,001,2025-01-26_15h03.15.556,contrast_sensitivity,2024.2.4,None,2025-01-26 15h03.22.047040 -0500,
0.001,1,0.05,225,15,3,right,0.400280375033617,None,3,15,225,45,235.6196098329965,,,,235.61142554099206,236.20852687500883,236.62211100000422,right,0.400280375033617,None,demo,001,2025-01-26_15h03.15.556,contrast_sensitivity,2024.2.4,None,2025-01-26 15h03.22.047040 -0500,
0.1,1,0.2,226,16,3,right,0.6228110000956804,None,3,16,226,19,236.6308784999419,,,,236.62408058298752,237.21999533299822,237.85511887492612,right,0.6228110000956804,None,demo,001,2025-01-26_15h03.15.556,contrast_sensitivity,2024.2.4,None,2025-01-26 15h03.22.047040 -0500,
1e-09,-1,0.4,227,17,3,left,0.3956545419059694,None,3,17,227,7,237.8640440829331,,,,237.85721712501254,238.4531252499437,238.85546479094774,left,0.3956545419059694,None,demo,001,2025-01-26_15h03.15.556,contrast_sensitivity,2024.2.4,None,2025-01-26 15h03.22.047040 -0500,
1e-09,1,0.1,228,18,3,left,0.38554670801386237,None,3,18,228,28,238.8645545829786,,,,238.85766483296175,239.4531958749285,239.84215691592544,left,0.38554670801386237,None,demo,001,2025-01-26_15h03.15.556,contrast_sensitivity,2024.2.4,None,2025-01-26 15h03.22.047040 -0500,
0.1,-1,0.1,229,19,3,left,0.33819104195572436,None,3,19,229,40,239.8530317909317,,,,239.8442211250076,240.44152429094538,240.7880559579935,left,0.33819104195572436,None,demo,001,2025-01-26_15h03.15.556,contrast_sensitivity,2024.2.4,None,2025-01-26 15h03.22.047040 -0500,
1.0,1,0.4,230,20,3,right,0.4527628340292722,None,3,20,230,6,240.79458300000988,,,,240.79038904095069,241.38693074998446,241.842480583,right,0.4527628340292722,None,demo,001,2025-01-26_15h03.15.556,contrast_sensitivity,2024.2.4,None,2025-01-26 15h03.22.047040 -0500,
1e-09,1,0.025,231,21,3,right,0.4735480829840526,None,3,21,231,56,241.85299849999137,,,,241.84390816593077,242.4421663749963,242.92126783297863,right,0.4735480829840526,None,demo,001,2025-01-26_15h03.15.556,contrast_sensitivity,2024.2.4,None,2025-01-26 15h03.22.047040 -0500,
1e-05,-1,0.1,232,22,3,right,0.49277766700834036,None,3,22,232,37,242.92939520801883,,,,242.92291337496135,243.51985637494363,244.02225729101337,right,0.49277766700834036,None,demo,001,2025-01-26_15h03.15.556,contrast_sensitivity,2024.2.4,None,2025-01-26 15h03.22.047040 -0500,
1e-05,1,0.05,233,23,3,left,0.4228332919301465,None,3,23,233,44,244.0305871249875,,,,244.02417600003537,244.6198864580365,245.05547670798842,left,0.4228332919301465,None,demo,001,2025-01-26_15h03.15.556,contrast_sensitivity,2024.2.4,None,2025-01-26 15h03.22.047040 -0500,
1e-05,1,0.2,234,24,3,left,0.4651922920020297,None,3,24,234,16,245.0647692499915,,,,245.0578491659835,245.65342154097743,246.12289929098915,left,0.4651922920020297,None,demo,001,2025-01-26_15h03.15.556,contrast_sensitivity,2024.2.4,None,2025-01-26 15h03.22.047040 -0500,
0.001,1,0.2,235,25,3,right,0.46268604206852615,None,3,25,235,17,246.13198416598607,,,,246.12498650001362,246.7369741660077,247.20516854093876,right,0.46268604206852615,None,demo,001,2025-01-26_15h03.15.556,contrast_sensitivity,2024.2.4,None,2025-01-26 15h03.22.047040 -0500,
1e-05,-1,0.025,236,26,3,right,0.6500536249950528,None,3,26,236,65,247.21933724998962,,,,247.20646629098337,247.8095202499535,248.4723926249426,right,0.6500536249950528,None,demo,001,2025-01-26_15h03.15.556,contrast_sensitivity,2024.2.4,None,2025-01-26 15h03.22.047040 -0500,
1e-05,-1,0.4,237,27,3,right,0.7703633750788867,None,3,27,237,9,248.4809096249519,,,,248.47424933302682,249.08711570792366,249.8730800829362,right,0.7703633750788867,None,demo,001,2025-01-26_15h03.15.556,contrast_sensitivity,2024.2.4,None,2025-01-26 15h03.22.047040 -0500,
0.001,-1,0.1,238,28,3,left,0.7782677919603884,None,3,28,238,38,249.88664095802233,,,,249.87510512501467,250.4752087079687,251.25948374997824,left,0.7782677919603884,None,demo,001,2025-01-26_15h03.15.556,contrast_sensitivity,2024.2.4,None,2025-01-26 15h03.22.047040 -0500,
0.01,-1,0.1,239,29,3,right,0.6131669579772279,None,3,29,239,39,251.26970570802223,,,,251.26161362498533,251.87040370795876,252.48944725003093,right,0.6131669579772279,None,demo,001,2025-01-26_15h03.15.556,contrast_sensitivity,2024.2.4,None,2025-01-26 15h03.22.047040 -0500,
1e-07,-1,0.4,240,30,3,right,0.8679305000696331,None,3,30,240,8,252.49779887497425,,,,252.49149108293932,253.08655312494375,253.95939333294518,right,0.8679305000696331,None,demo,001,2025-01-26_15h03.15.556,contrast_sensitivity,2024.2.4,None,2025-01-26 15h03.22.047040 -0500,
1e-07,1,0.025,241,31,3,left,0.7623970001004636,None,3,31,241,57,253.96971008297987,,,,253.9614042500034,254.55801341601182,255.3262664580252,left,0.7623970001004636,None,demo,001,2025-01-26_15h03.15.556,contrast_sensitivity,2024.2.4,None,2025-01-26 15h03.22.047040 -0500,
1.0,-1,0.4,242,32,3,left,0.5452979159308597,None,3,32,242,13,255.33533666597214,,,,255.32896479102783,255.9250412909314,256.4763917910168,left,0.5452979159308597,None,demo,001,2025-01-26_15h03.15.556,contrast_sensitivity,2024.2.4,None,2025-01-26 15h03.22.047040 -0500,
0.1,-1,0.05,243,33,3,left,0.6383761250181124,None,3,33,243,54,256.4862178330077,,,,256.4785202499479,257.0740824160166,257.7216061659856,left,0.6383761250181124,None,demo,001,2025-01-26_15h03.15.556,contrast_sensitivity,2024.2.4,None,2025-01-26 15h03.22.047040 -0500,
1e-05,1,0.025,244,34,3,left,0.8093987919855863,None,3,34,244,58,257.7302757499274,,,,257.72354066593107,258.32001150003634,259.1386912079761,left,0.8093987919855863,None,demo,001,2025-01-26_15h03.15.556,contrast_sensitivity,2024.2.4,None,2025-01-26 15h03.22.047040 -0500,
1e-05,-1,0.05,245,35,3,left,0.7216284589376301,None,3,35,245,51,259.147162499954,,,,259.1406126660295,259.7366072499426,260.47257250000257,left,0.7216284589376301,None,demo,001,2025-01-26_15h03.15.556,contrast_sensitivity,2024.2.4,None,2025-01-26 15h03.22.047040 -0500,
0.1,-1,0.025,246,36,3,left,0.6358076250180602,None,3,36,246,68,260.480910415994,,,,260.4745211249683,261.0694627909688,261.7089089159854,left,0.6358076250180602,None,demo,001,2025-01-26_15h03.15.556,contrast_sensitivity,2024.2.4,None,2025-01-26 15h03.22.047040 -0500,
0.01,-1,0.2,247,37,3,right,0.7778599590528756,None,3,37,247,25,261.71977583295666,,,,261.71085825003684,262.3034169579623,263.08880875003524,right,0.7778599590528756,None,demo,001,2025-01-26_15h03.15.556,contrast_sensitivity,2024.2.4,None,2025-01-26 15h03.22.047040 -0500,
0.1,1,0.05,248,38,3,right,0.6335845409194008,None,3,38,248,47,263.0968438750133,,,,263.09067079098895,263.68654195801355,264.32266366598196,right,0.6335845409194008,None,demo,001,2025-01-26_15h03.15.556,contrast_sensitivity,2024.2.4,None,2025-01-26 15h03.22.047040 -0500,
0.01,1,0.025,249,39,3,right,0.525367374997586,None,3,39,249,60,264.3309540830087,,,,264.3245767080225,264.919878375018,265.4553465000354,right,0.525367374997586,None,demo,001,2025-01-26_15h03.15.556,contrast_sensitivity,2024.2.4,None,2025-01-26 15h03.22.047040 -0500,
1e-09,1,0.2,250,40,3,right,1.297858832986094,None,3,40,250,14,265.4638414999936,,,,265.45733224996366,266.0532763330266,267.3554465409834,right,1.297858832986094,None,demo,001,2025-01-26_15h03.15.556,contrast_sensitivity,2024.2.4,None,2025-01-26 15h03.22.047040 -0500,
0.1,1,0.4,251,41,3,right,0.5298265829915181,None,3,41,251,5,267.36285266594496,,,,267.35731029103044,267.95337841601577,268.4889625409851,right,0.5298265829915181,None,demo,001,2025-01-26_15h03.15.556,contrast_sensitivity,2024.2.4,None,2025-01-26 15h03.22.047040 -0500,
1.0,1,0.05,252,42,3,right,0.2566667919745669,None,3,42,252,48,268.49761099996977,,,,268.4908559159376,269.0864047079813,269.35576708300505,right,0.2566667919745669,None,demo,001,2025-01-26_15h03.15.556,contrast_sensitivity,2024.2.4,None,2025-01-26 15h03.22.047040 -0500,
0.001,1,0.4,253,43,3,right,0.41595645796041936,None,3,43,253,3,269.3699186659651,,,,269.357686207979,269.9531588329701,270.37280925002415,right,0.41595645796041936,None,demo,001,2025-01-26_15h03.15.556,contrast_sensitivity,2024.2.4,None,2025-01-26 15h03.22.047040 -0500,
0.1,-1,0.2,254,44,3,left,0.3226772079942748,None,3,44,254,26,270.3813329159748,,,,270.37467558297794,270.97038087493274,271.3054542079335,left,0.3226772079942748,None,demo,001,2025-01-26_15h03.15.556,contrast_sensitivity,2024.2.4,None,2025-01-26 15h03.22.047040 -0500,
1e-09,-1,0.05,255,45,3,left,0.48595150001347065,None,3,45,255,49,271.31471399997827,,,,271.3078380409861,271.90308025002014,272.39302562503144,left,0.48595150001347065,None,demo,001,2025-01-26_15h03.15.556,contrast_sensitivity,2024.2.4,None,2025-01-26 15h03.22.047040 -0500,
0.01,1,0.1,256,46,3,left,0.7176645409781486,None,3,46,256,32,272.40302495798096,,,,272.39487441594247,272.99134391592816,273.722360957996,left,0.7176645409781486,None,demo,001,2025-01-26_15h03.15.556,contrast_sensitivity,2024.2.4,None,2025-01-26 15h03.22.047040 -0500,
0.001,-1,0.05,257,47,3,left,0.3471273749601096,None,3,47,257,52,273.7309328329284,,,,273.72426824993454,274.31984387501143,274.6721897079842,left,0.3471273749601096,None,demo,001,2025-01-26_15h03.15.556,contrast_sensitivity,2024.2.4,None,2025-01-26 15h03.22.047040 -0500,
1e-07,1,0.1,258,48,3,right,0.7601776249939576,None,3,48,258,29,274.68650495796464,,,,274.67403558292426,275.26981533295475,276.03838183300104,right,0.7601776249939576,None,demo,001,2025-01-26_15h03.15.556,contrast_sensitivity,2024.2.4,None,2025-01-26 15h03.22.047040 -0500,
0.001,-1,0.025,259,49,3,right,0.4843675830634311,None,3,49,259,66,276.04673724994063,,,,276.04025733296294,276.63647779100575,277.12683791597374,right,0.4843675830634311,None,demo,001,2025-01-26_15h03.15.556,contrast_sensitivity,2024.2.4,None,2025-01-26 15h03.22.047040 -0500,
1.0,-1,0.2,260,50,3,left,0.34348499996121973,None,3,50,260,27,277.1354525409406,,,,277.1286655829754,277.72442354098894,278.072246958036,left,0.34348499996121973,None,demo,001,2025-01-26_15h03.15.556,contrast_sensitivity,2024.2.4,None,2025-01-26 15h03.22.047040 -0500,
1.0,1,0.025,261,51,3,right,0.37196324998512864,None,3,51,261,62,278.08083012502175,,,,278.07421645801514,278.66990262502804,279.0552459160099,right,0.37196324998512864,None,demo,001,2025-01-26_15h03.15.556,contrast_sensitivity,2024.2.4,None,2025-01-26 15h03.22.047040 -0500,
1.0,1,0.2,262,52,3,right,0.4117040840210393,None,3,52,262,20,279.0638751250226,,,,279.05751820793375,279.6531682499917,280.07209016603883,right,0.4117040840210393,None,demo,001,2025-01-26_15h03.15.556,contrast_sensitivity,2024.2.4,None,2025-01-26 15h03.22.047040 -0500,
1e-07,1,0.4,263,53,3,right,0.3957702920306474,None,3,53,263,1,280.0806237499928,,,,280.0739813329419,280.67011529102456,281.07189895794727,right,0.3957702920306474,None,demo,001,2025-01-26_15h03.15.556,contrast_sensitivity,2024.2.4,None,2025-01-26 15h03.22.047040 -0500,
1.0,-1,0.05,264,54,3,left,0.26280037499964237,None,3,54,264,55,281.0802926659817,,,,281.073703165981,281.6697840410052,281.9384639579803,left,0.26280037499964237,None,demo,001,2025-01-26_15h03.15.556,contrast_sensitivity,2024.2.4,None,2025-01-26 15h03.22.047040 -0500,
0.01,1,0.2,265,55,3,right,0.4662469159811735,None,3,55,265,18,281.94634408294223,,,,281.94028258300386,282.53650733293034,283.0056009159889,right,0.4662469159811735,None,demo,001,2025-01-26_15h03.15.556,contrast_sensitivity,2024.2.4,None,2025-01-26 15h03.22.047040 -0500,
0.001,1,0.025,266,56,3,right,0.9194659580243751,None,3,56,266,59,283.0145029160194,,,,283.00764262501616,283.60329037497286,284.52580991596915,right,0.9194659580243751,None,demo,001,2025-01-26_15h03.15.556,contrast_sensitivity,2024.2.4,None,2025-01-26 15h03.22.047040 -0500,
0.01,-1,0.025,267,57,3,left,0.376018333947286,None,3,57,267,67,284.53647829103284,,,,284.5278067080071,285.1247910410166,285.5055427909829,left,0.376018333947286,None,demo,001,2025-01-26_15h03.15.556,contrast_sensitivity,2024.2.4,None,2025-01-26 15h03.22.047040 -0500,
0.01,-1,0.4,268,58,3,left,0.3809370839735493,None,3,58,268,11,285.5141942909686,,,,285.50738729094155,286.1037296249997,286.48908112500794,left,0.3809370839735493,None,demo,001,2025-01-26_15h03.15.556,contrast_sensitivity,2024.2.4,None,2025-01-26 15h03.22.047040 -0500,
0.01,1,0.4,269,59,3,right,0.34405220800545067,None,3,59,269,4,286.4977012909949,,,,286.49116899992805,287.0867131659761,287.4379179159878,right,0.34405220800545067,None,demo,001,2025-01-26_15h03.15.556,contrast_sensitivity,2024.2.4,None,2025-01-26 15h03.22.047040 -0500,
1e-09,-1,0.2,270,60,3,right,0.18916308309417218,None,3,60,270,21,287.4448958330322,,,,287.4396184160141,288.03655112499837,288.23905729094986,right,0.18916308309417218,None,demo,001,2025-01-26_15h03.15.556,contrast_sensitivity,2024.2.4,None,2025-01-26 15h03.22.047040 -0500,
0.001,-1,0.4,271,61,3,left,0.1623424160061404,None,3,61,271,10,288.24731783301104,,,,288.24110774998553,288.83640754094813,289.0057740409393,left,0.1623424160061404,None,demo,001,2025-01-26_15h03.15.556,contrast_sensitivity,2024.2.4,None,2025-01-26 15h03.22.047040 -0500,
1.0,1,0.1,272,62,3,right,0.20027299993671477,None,3,62,272,34,289.0139795829309,,,,289.00773333292454,289.60329808294773,289.80943645793013,right,0.20027299993671477,None,demo,001,2025-01-26_15h03.15.556,contrast_sensitivity,2024.2.4,None,2025-01-26 15h03.22.047040 -0500,
0.1,1,0.1,273,63,3,right,0.27977962500881404,None,3,63,273,33,289.8196459580213,,,,289.81159354094416,290.4075444579357,290.69288629095536,right,0.27977962500881404,None,demo,001,2025-01-26_15h03.15.556,contrast_sensitivity,2024.2.4,None,2025-01-26 15h03.22.047040 -0500,
1e-07,-1,0.05,274,64,3,right,0.3866872920189053,None,3,64,274,50,290.7030703329947,,,,290.69484324997757,291.2909036659403,291.6892047909787,right,0.3866872920189053,None,demo,001,2025-01-26_15h03.15.556,contrast_sensitivity,2024.2.4,None,2025-01-26 15h03.22.047040 -0500,
1e-07,1,0.05,275,65,3,left,0.4270574579713866,None,3,65,275,43,291.69792091601994,,,,291.6915253329789,292.28659195802175,292.7215657499619,left,0.4270574579713866,None,demo,001,2025-01-26_15h03.15.556,contrast_sensitivity,2024.2.4,None,2025-01-26 15h03.22.047040 -0500,
1e-09,1,0.4,276,66,3,left,0.763540458981879,None,3,66,276,0,292.7305945829721,,,,292.7236478329869,293.3199869999662,294.08876920794137,left,0.763540458981879,None,demo,001,2025-01-26_15h03.15.556,contrast_sensitivity,2024.2.4,None,2025-01-26 15h03.22.047040 -0500,
1e-07,-1,0.1,277,67,3,left,0.7498529580188915,None,3,67,277,36,294.0968962080078,,,,294.0906447910238,294.6865967499325,295.4392688330263,left,0.7498529580188915,None,demo,001,2025-01-26_15h03.15.556,contrast_sensitivity,2024.2.4,None,2025-01-26 15h03.22.047040 -0500,
1e-09,-1,0.1,278,68,3,right,0.6359689580276608,None,3,68,278,35,295.44714341603685,,,,295.44109587499406,296.03645920800045,296.675228707958,right,0.6359689580276608,None,demo,001,2025-01-26_15h03.15.556,contrast_sensitivity,2024.2.4,None,2025-01-26 15h03.22.047040 -0500,
1e-09,1,0.05,279,69,3,left,0.5750542080495507,None,3,69,279,42,296.6857313750079,,,,296.67707308300305,297.2744818329811,297.8555712499656,left,0.5750542080495507,None,demo,001,2025-01-26_15h03.15.556,contrast_sensitivity,2024.2.4,None,2025-01-26 15h03.22.047040 -0500,
0.1,-1,0.2,280,0,4,left,0.3755449999589473,None,4,0,280,26,297.86429470800795,,,,297.8575013750233,298.45288358302787,298.8385810829932,left,0.3755449999589473,None,demo,001,2025-01-26_15h03.15.556,contrast_sensitivity,2024.2.4,None,2025-01-26 15h03.22.047040 -0500,
1.0,-1,0.1,281,1,4,left,0.1379347500624135,None,4,1,281,41,298.8470559580019,,,,298.84047154092696,299.43640991603024,299.57660949998535,left,0.1379347500624135,None,demo,001,2025-01-26_15h03.15.556,contrast_sensitivity,2024.2.4,None,2025-01-26 15h03.22.047040 -0500,
0.001,1,0.1,282,2,4,left,0.6097977090394124,None,4,2,282,31,299.58616449998226,,,,299.5783917909721,300.174596625031,300.789005041006,left,0.6097977090394124,None,demo,001,2025-01-26_15h03.15.556,contrast_sensitivity,2024.2.4,None,2025-01-26 15h03.22.047040 -0500,
1e-07,-1,0.05,283,3,4,left,0.5105081250658259,None,4,3,283,50,300.79776683298405,,,,300.79107020795345,301.38587362493854,301.9048364580376,left,0.5105081250658259,None,demo,001,2025-01-26_15h03.15.556,contrast_sensitivity,2024.2.4,None,2025-01-26 15h03.22.047040 -0500,
0.1,1,0.4,284,4,4,right,0.37794933398254216,None,4,4,284,5,301.91359254100826,,,,301.9068306660047,302.5033570829546,302.8889554999769,right,0.37794933398254216,None,demo,001,2025-01-26_15h03.15.556,contrast_sensitivity,2024.2.4,None,2025-01-26 15h03.22.047040 -0500,
1e-07,1,0.4,285,5,4,right,0.6988381249830127,None,4,5,285,1,302.9032464999473,,,,302.8914603330195,303.486456249957,304.18851612496655,right,0.6988381249830127,None,demo,001,2025-01-26_15h03.15.556,contrast_sensitivity,2024.2.4,None,2025-01-26 15h03.22.047040 -0500,
1e-09,1,0.4,286,6,4,left,0.4449320830171928,None,4,6,286,0,304.19698300003074,,,,304.19046416599303,304.786463166005,305.2389311660081,left,0.4449320830171928,None,demo,001,2025-01-26_15h03.15.556,contrast_sensitivity,2024.2.4,None,2025-01-26 15h03.22.047040 -0500,
1e-07,-1,0.025,287,7,4,left,0.46454991691280156,None,4,7,287,64,305.24750358297024,,,,305.2407974159578,305.83664870797656,306.3057455830276,left,0.46454991691280156,None,demo,001,2025-01-26_15h03.15.556,contrast_sensitivity,2024.2.4,None,2025-01-26 15h03.22.047040 -0500,
1e-07,1,0.1,288,8,4,right,0.5499719999497756,None,4,8,288,29,306.3143556249561,,,,306.3075743749505,306.9031913749641,307.4546829579631,right,0.5499719999497756,None,demo,001,2025-01-26_15h03.15.556,contrast_sensitivity,2024.2.4,None,2025-01-26 15h03.22.047040 -0500,
0.1,-1,0.1,289,9,4,left,0.40496499999426305,None,4,9,289,40,307.46329229103867,,,,307.4565184159437,308.0532100829296,308.4713559160009,left,0.40496499999426305,None,demo,001,2025-01-26_15h03.15.556,contrast_sensitivity,2024.2.4,None,2025-01-26 15h03.22.047040 -0500,
1.0,-1,0.2,290,10,4,left,0.37118616700172424,None,4,10,290,27,308.4786429159576,,,,308.4731104579987,309.06995249993633,309.44425170798786,left,0.37118616700172424,None,demo,001,2025-01-26_15h03.15.556,contrast_sensitivity,2024.2.4,None,2025-01-26 15h03.22.047040 -0500,
0.01,-1,0.025,291,11,4,left,0.5122606660006568,None,4,11,291,67,309.45305012492463,,,,309.44667783298064,310.0418677079724,310.55904404097237,left,0.5122606660006568,None,demo,001,2025-01-26_15h03.15.556,contrast_sensitivity,2024.2.4,None,2025-01-26 15h03.22.047040 -0500,
1.0,1,0.05,292,12,4,right,0.3980863339966163,None,4,12,292,48,310.5695916659897,,,,310.5611498749349,311.1530361250043,311.555787374964,right,0.3980863339966163,None,demo,001,2025-01-26_15h03.15.556,contrast_sensitivity,2024.2.4,None,2025-01-26 15h03.22.047040 -0500,
1e-07,-1,0.1,293,13,4,right,0.6387612919788808,None,4,13,293,36,311.563292415929,,,,311.557612375007,312.1533157909289,312.8058972499566,right,0.6387612919788808,None,demo,001,2025-01-26_15h03.15.556,contrast_sensitivity,2024.2.4,None,2025-01-26 15h03.22.047040 -0500,
0.01,-1,0.2,294,14,4,left,0.515975832939148,None,4,14,294,25,312.81447500002105,,,,312.8079122910276,313.4031003329437,313.92227441596333,left,0.515975832939148,None,demo,001,2025-01-26_15h03.15.556,contrast_sensitivity,2024.2.4,None,2025-01-26 15h03.22.047040 -0500,
1e-07,1,0.2,295,15,4,left,0.45431191695388407,None,4,15,295,15,313.931037500035,,,,313.92418424994685,314.5197066660039,314.97639070800506,left,0.45431191695388407,None,demo,001,2025-01-26_15h03.15.556,contrast_sensitivity,2024.2.4,None,2025-01-26 15h03.22.047040 -0500,
0.001,1,0.05,296,16,4,right,0.4278602920239791,None,4,16,296,45,314.98642095795367,,,,314.97819829103537,315.5751551249996,316.00616666593123,right,0.4278602920239791,None,demo,001,2025-01-26_15h03.15.556,contrast_sensitivity,2024.2.4,None,2025-01-26 15h03.22.047040 -0500,
1e-05,1,0.1,297,17,4,right,0.37690458400174975,None,4,17,297,30,316.0145396660082,,,,316.00802962493617,316.60320183297154,316.9888287909562,right,0.37690458400174975,None,demo,001,2025-01-26_15h03.15.556,contrast_sensitivity,2024.2.4,None,2025-01-26 15h03.22.047040 -0500,
0.001,1,0.2,298,18,4,right,0.6295601660385728,None,4,18,298,17,316.9971781249624,,,,316.9907328749541,317.58644362492487,318.22165904100984,right,0.6295601660385728,None,demo,001,2025-01-26_15h03.15.556,contrast_sensitivity,2024.2.4,None,2025-01-26 15h03.22.047040 -0500,
1e-09,1,0.2,299,19,4,left,0.37689616705756634,None,4,19,299,14,318.2293729579542,,,,318.22349754103925,318.82506491593085,319.2056162499357,left,0.37689616705756634,None,demo,001,2025-01-26_15h03.15.556,contrast_sensitivity,2024.2.4,None,2025-01-26 15h03.22.047040 -0500,
1e-09,-1,0.025,300,20,4,left,0.6095831251004711,None,4,20,300,63,319.21463787497487,,,,319.20804108295124,319.8033198750345,320.42159437492955,left,0.6095831251004711,None,demo,001,2025-01-26_15h03.15.556,contrast_sensitivity,2024.2.4,None,2025-01-26 15h03.22.047040 -0500,
1e-09,1,0.1,301,21,4,right,0.4158249580068514,None,4,21,301,28,320.4298418329563,,,,320.4234755409416,321.02006641600747,321.4388681249693,right,0.4158249580068514,None,demo,001,2025-01-26_15h03.15.556,contrast_sensitivity,2024.2.4,None,2025-01-26 15h03.22.047040 -0500,
0.001,1,0.025,302,22,4,left,0.617048375075683,None,4,22,302,59,321.44496558292303,,,,321.4406814579852,322.0367623330094,322.6587231250014,left,0.617048375075683,None,demo,001,2025-01-26_15h03.15.556,contrast_sensitivity,2024.2.4,None,2025-01-26 15h03.22.047040 -0500,
0.1,1,0.025,303,23,4,right,0.3387076249346137,None,4,23,303,61,322.6698578329524,,,,322.6607062079711,323.25815704092383,323.6050769999856,right,0.3387076249346137,None,demo,001,2025-01-26_15h03.15.556,contrast_sensitivity,2024.2.4,None,2025-01-26 15h03.22.047040 -0500,
0.1,-1,0.4,304,24,4,left,0.33644233306404203,None,4,24,304,12,323.61397529102396,,,,323.607155415928,324.2033390409779,324.5426826659823,left,0.33644233306404203,None,demo,001,2025-01-26_15h03.15.556,contrast_sensitivity,2024.2.4,None,2025-01-26 15h03.22.047040 -0500,
1e-09,-1,0.1,305,25,4,left,0.3981885000830516,None,4,25,305,35,324.55217749997973,,,,324.54465112497564,325.1416407499928,325.5426067500375,left,0.3981885000830516,None,demo,001,2025-01-26_15h03.15.556,contrast_sensitivity,2024.2.4,None,2025-01-26 15h03.22.047040 -0500,
0.001,-1,0.1,306,26,4,left,0.5782392909750342,None,4,26,306,38,325.5531692500226,,,,325.5446188329952,326.14150087500457,326.72229412500747,left,0.5782392909750342,None,demo,001,2025-01-26_15h03.15.556,contrast_sensitivity,2024.2.4,None,2025-01-26 15h03.22.047040 -0500,
0.1,1,0.1,307,27,4,right,0.321801875019446,None,4,27,307,33,326.7301959579345,,,,326.7242106660269,327.3199062079657,327.6550050409278,right,0.321801875019446,None,demo,001,2025-01-26_15h03.15.556,contrast_sensitivity,2024.2.4,None,2025-01-26 15h03.22.047040 -0500,
1e-09,1,0.05,308,28,4,right,0.3418533749645576,None,4,28,308,42,327.6638052079361,,,,327.65705187502317,328.252855291008,328.60568629100453,right,0.3418533749645576,None,demo,001,2025-01-26_15h03.15.556,contrast_sensitivity,2024.2.4,None,2025-01-26 15h03.22.047040 -0500,
1e-05,-1,0.05,309,29,4,left,0.5694834580644965,None,4,29,309,51,328.614102124935,,,,328.60761820792686,329.2031862499425,329.77534312498756,left,0.5694834580644965,None,demo,001,2025-01-26_15h03.15.556,contrast_sensitivity,2024.2.4,None,2025-01-26 15h03.22.047040 -0500,
0.01,-1,0.4,310,30,4,left,0.310035084025003,None,4,30,310,11,329.7863434579922,,,,329.77756979095284,330.3746938749682,330.68848495802376,left,0.310035084025003,None,demo,001,2025-01-26_15h03.15.556,contrast_sensitivity,2024.2.4,None,2025-01-26 15h03.22.047040 -0500,
0.1,1,0.05,311,31,4,right,0.4108393330825493,None,4,31,311,47,330.6973638329655,,,,330.69059579097666,331.2868273749482,331.7058946660254,right,0.4108393330825493,None,demo,001,2025-01-26_15h03.15.556,contrast_sensitivity,2024.2.4,None,2025-01-26 15h03.22.047040 -0500,
1e-09,-1,0.05,312,32,4,right,0.40975129092112184,None,4,32,312,49,331.71432224998716,,,,331.70779274997767,332.3028787500225,332.7215790830087,right,0.40975129092112184,None,demo,001,2025-01-26_15h03.15.556,contrast_sensitivity,2024.2.4,None,2025-01-26 15h03.22.047040 -0500,
1e-07,-1,0.4,313,33,4,left,0.40648908296134323,None,4,33,313,8,332.7303710409906,,,,332.72358312492725,333.3201011660276,333.73849154100753,left,0.40648908296134323,None,demo,001,2025-01-26_15h03.15.556,contrast_sensitivity,2024.2.4,None,2025-01-26 15h03.22.047040 -0500,
1.0,1,0.025,314,34,4,right,0.323136999970302,None,4,34,314,62,333.74748529097997,,,,333.7405863329768,334.3364120000042,334.67231699998956,right,0.323136999970302,None,demo,001,2025-01-26_15h03.15.556,contrast_sensitivity,2024.2.4,None,2025-01-26 15h03.22.047040 -0500,
0.1,1,0.2,315,35,4,right,0.32864645903464407,None,4,35,315,19,334.6807335410267,,,,334.6742119579576,335.2700282499427,335.6050159159349,right,0.32864645903464407,None,demo,001,2025-01-26_15h03.15.556,contrast_sensitivity,2024.2.4,None,2025-01-26 15h03.22.047040 -0500,
1e-05,-1,0.025,316,36,4,right,0.6322962499689311,None,4,36,316,65,335.6132251250092,,,,335.60702129092533,336.2032178749796,336.8394836250227,right,0.6322962499689311,None,demo,001,2025-01-26_15h03.15.556,contrast_sensitivity,2024.2.4,None,2025-01-26 15h03.22.047040 -0500,
1.0,-1,0.05,317,37,4,left,0.3759962080512196,None,4,37,317,55,336.8477667910047,,,,336.8418364159297,337.43654074997175,337.8225332079455,left,0.3759962080512196,None,demo,001,2025-01-26_15h03.15.556,contrast_sensitivity,2024.2.4,None,2025-01-26 15h03.22.047040 -0500,
0.01,1,0.1,318,38,4,right,0.4876047499710694,None,4,38,318,32,337.8304884999525,,,,337.82459066598676,338.4198413329432,338.9221106249606,right,0.4876047499710694,None,demo,001,2025-01-26_15h03.15.556,contrast_sensitivity,2024.2.4,None,2025-01-26 15h03.22.047040 -0500,
0.01,1,0.025,319,39,4,left,0.4665250829420984,None,4,39,319,60,338.936799957999,,,,338.9241568329744,339.51988254103344,339.98884999996517,left,0.4665250829420984,None,demo,001,2025-01-26_15h03.15.556,contrast_sensitivity,2024.2.4,None,2025-01-26 15h03.22.047040 -0500,
1.0,1,0.2,320,40,4,right,0.33189199992921203,None,4,40,320,20,339.99794670799747,,,,339.9910609580111,340.58658599993214,340.9223802499473,right,0.33189199992921203,None,demo,001,2025-01-26_15h03.15.556,contrast_sensitivity,2024.2.4,None,2025-01-26 15h03.22.047040 -0500,
0.01,-1,0.1,321,41,4,left,0.47647262504324317,None,4,41,321,39,340.930085666012,,,,340.9244789580116,341.5190613330342,342.00530208298005,left,0.47647262504324317,None,demo,001,2025-01-26_15h03.15.556,contrast_sensitivity,2024.2.4,None,2025-01-26 15h03.22.047040 -0500,
1e-09,-1,0.2,322,42,4,left,0.5021763329859823,None,4,42,322,21,342.0141877499409,,,,342.0073358749505,342.6032327909488,343.1093254579464,left,0.5021763329859823,None,demo,001,2025-01-26_15h03.15.556,contrast_sensitivity,2024.2.4,None,2025-01-26 15h03.22.047040 -0500,
0.01,1,0.4,323,43,4,right,0.5929954579332843,None,4,43,323,4,343.1197455410147,,,,343.1112035829574,343.7074225409888,344.30526254093274,right,0.5929954579332843,None,demo,001,2025-01-26_15h03.15.556,contrast_sensitivity,2024.2.4,None,2025-01-26 15h03.22.047040 -0500,
1.0,-1,0.4,324,44,4,left,0.44217850000131875,None,4,44,324,13,344.31318241602276,,,,344.3071414999431,344.90315504092723,345.35517145798076,left,0.44217850000131875,None,demo,001,2025-01-26_15h03.15.556,contrast_sensitivity,2024.2.4,None,2025-01-26 15h03.22.047040 -0500,
1e-05,1,0.2,325,45,4,right,0.360319958999753,None,4,45,325,16,345.36151908303145,,,,345.35680533293635,345.9531095830025,346.3220022500027,right,0.360319958999753,None,demo,001,2025-01-26_15h03.15.556,contrast_sensitivity,2024.2.4,None,2025-01-26 15h03.22.047040 -0500,
0.01,-1,0.05,326,46,4,left,0.4683671250240877,None,4,46,326,53,346.33084462501574,,,,346.3240576660028,346.91995858296286,347.39203320792876,left,0.4683671250240877,None,demo,001,2025-01-26_15h03.15.556,contrast_sensitivity,2024.2.4,None,2025-01-26 15h03.22.047040 -0500,
1e-05,-1,0.1,327,47,4,right,0.5597198329633102,None,4,47,327,37,347.40323820803314,,,,347.3941970829619,347.98650558292866,348.5539007500047,right,0.5597198329633102,None,demo,001,2025-01-26_15h03.15.556,contrast_sensitivity,2024.2.4,None,2025-01-26 15h03.22.047040 -0500,
1.0,1,0.4,328,48,4,right,0.5178446670761332,None,4,48,328,6,348.55949933303054,,,,348.5555158749921,349.14143433293793,349.6721932500368,right,0.5178446670761332,None,demo,001,2025-01-26_15h03.15.556,contrast_sensitivity,2024.2.4,None,2025-01-26 15h03.22.047040 -0500,
1.0,1,0.1,329,49,4,right,0.4641628749668598,None,4,49,329,34,349.6809291249374,,,,349.6741227499442,350.27004416601267,350.7391882080119,right,0.4641628749668598,None,demo,001,2025-01-26_15h03.15.556,contrast_sensitivity,2024.2.4,None,2025-01-26 15h03.22.047040 -0500,
0.001,-1,0.05,330,50,4,left,0.33647370897233486,None,4,50,330,52,350.74755249999,,,,350.741028624936,351.3367069159867,351.6767164999619,left,0.33647370897233486,None,demo,001,2025-01-26_15h03.15.556,contrast_sensitivity,2024.2.4,None,2025-01-26 15h03.22.047040 -0500,
0.01,1,0.05,331,51,4,left,0.4310845830477774,None,4,51,331,46,351.6863420410082,,,,351.67790479096584,352.2751085830387,352.7098308330169,left,0.4310845830477774,None,demo,001,2025-01-26_15h03.15.556,contrast_sensitivity,2024.2.4,None,2025-01-26 15h03.22.047040 -0500,
1e-07,1,0.025,332,52,4,right,0.5881013750331476,None,4,52,332,57,352.71967954095453,,,,352.7117506660288,353.3081705829827,353.9049678329611,right,0.5881013750331476,None,demo,001,2025-01-26_15h03.15.556,contrast_sensitivity,2024.2.4,None,2025-01-26 15h03.22.047040 -0500,
0.001,-1,0.2,333,53,4,right,0.900872083962895,None,4,53,333,24,353.91328608302865,,,,353.90685645793565,354.50320308294613,355.40967370802537,right,0.900872083962895,None,demo,001,2025-01-26_15h03.15.556,contrast_sensitivity,2024.2.4,None,2025-01-26 15h03.22.047040 -0500,
1e-07,1,0.05,334,54,4,right,0.6081203749636188,None,4,54,334,43,355.41871300002094,,,,355.4121810409706,356.0080657500075,356.62212724995334,right,0.6081203749636188,None,demo,001,2025-01-26_15h03.15.556,contrast_sensitivity,2024.2.4,None,2025-01-26 15h03.22.047040 -0500,
1e-05,-1,0.2,335,55,4,left,0.4759999579982832,None,4,55,335,23,356.62953258294147,,,,356.62424908299,357.2200477080187,357.70529562502634,left,0.4759999579982832,None,demo,001,2025-01-26_15h03.15.556,contrast_sensitivity,2024.2.4,None,2025-01-26 15h03.22.047040 -0500,
1e-05,1,0.025,336,56,4,right,0.5957840420305729,None,4,56,336,58,357.71340766595677,,,,357.70739120803773,358.3032224159688,358.90518212493043,right,0.5957840420305729,None,demo,001,2025-01-26_15h03.15.556,contrast_sensitivity,2024.2.4,None,2025-01-26 15h03.22.047040 -0500,
1.0,-1,0.025,337,57,4,left,0.4902834580279887,None,4,57,337,69,358.91380287497304,,,,358.9071744160028,359.5036690409761,360.00508441601414,left,0.4902834580279887,None,demo,001,2025-01-26_15h03.15.556,contrast_sensitivity,2024.2.4,None,2025-01-26 15h03.22.047040 -0500,
1e-05,-1,0.4,338,58,4,left,0.5715753749245778,None,4,58,338,9,360.01383654098026,,,,360.00720975000877,360.60310049995314,361.18821433302946,left,0.5715753749245778,None,demo,001,2025-01-26_15h03.15.556,contrast_sensitivity,2024.2.4,None,2025-01-26 15h03.22.047040 -0500,
0.1,-1,0.05,339,59,4,left,0.4184006249997765,None,4,59,339,54,361.19689137500245,,,,361.19014612503815,361.7865779999411,362.2084594159387,left,0.4184006249997765,None,demo,001,2025-01-26_15h03.15.556,contrast_sensitivity,2024.2.4,None,2025-01-26 15h03.22.047040 -0500,
0.001,-1,0.025,340,60,4,left,0.4972041250439361,None,4,60,340,66,362.2196699579945,,,,362.2104857499944,362.8077554999618,363.309262958006,left,0.4972041250439361,None,demo,001,2025-01-26_15h03.15.556,contrast_sensitivity,2024.2.4,None,2025-01-26 15h03.22.047040 -0500,
0.001,-1,0.4,341,61,4,left,0.42140641703736037,None,4,61,341,10,363.31987691600807,,,,363.3112109999638,363.9075450829696,364.3380473749712,left,0.42140641703736037,None,demo,001,2025-01-26_15h03.15.556,contrast_sensitivity,2024.2.4,None,2025-01-26 15h03.22.047040 -0500,
0.001,1,0.4,342,62,4,right,0.527428042027168,None,4,62,342,3,364.3456694999477,,,,364.34025820798706,364.9364517079666,365.4715838750126,right,0.527428042027168,None,demo,001,2025-01-26_15h03.15.556,contrast_sensitivity,2024.2.4,None,2025-01-26 15h03.22.047040 -0500,
0.01,1,0.2,343,63,4,left,0.48716649995185435,None,4,63,343,18,365.4804268749431,,,,365.4735702499747,366.0696885830257,366.5590612499509,left,0.48716649995185435,None,demo,001,2025-01-26_15h03.15.556,contrast_sensitivity,2024.2.4,None,2025-01-26 15h03.22.047040 -0500,
1e-05,1,0.4,344,64,4,left,0.4878797499695793,None,4,64,344,2,366.5696452909615,,,,366.56106266600545,367.15807270794176,367.65566845797,left,0.4878797499695793,None,demo,001,2025-01-26_15h03.15.556,contrast_sensitivity,2024.2.4,None,2025-01-26 15h03.22.047040 -0500,
1e-05,1,0.05,345,65,4,left,0.4976492919959128,None,4,65,345,44,367.66461579094175,,,,367.6576817079913,368.252273791004,368.75528049992863,left,0.4976492919959128,None,demo,001,2025-01-26_15h03.15.556,contrast_sensitivity,2024.2.4,None,2025-01-26 15h03.22.047040 -0500,
1e-09,-1,0.4,346,66,4,left,0.542827499913983,None,4,66,346,7,368.7631452080095,,,,368.7571992080193,369.35308675002307,369.90517249994446,left,0.542827499913983,None,demo,001,2025-01-26_15h03.15.556,contrast_sensitivity,2024.2.4,None,2025-01-26 15h03.22.047040 -0500,
0.1,-1,0.025,347,67,4,right,0.5482243340229616,None,4,67,347,68,369.91295770800207,,,,369.90700954094063,370.5031505409861,371.0559552499326,right,0.5482243340229616,None,demo,001,2025-01-26_15h03.15.556,contrast_sensitivity,2024.2.4,None,2025-01-26 15h03.22.047040 -0500,
1e-09,1,0.025,348,68,4,left,0.6685785420704633,None,4,68,348,56,371.0634712909814,,,,371.05797670793254,371.65315237501636,372.326819333015,left,0.6685785420704633,None,demo,001,2025-01-26_15h03.15.556,contrast_sensitivity,2024.2.4,None,2025-01-26 15h03.22.047040 -0500,
1e-07,-1,0.2,349,69,4,left,1.0662823329912499,None,4,69,349,22,372.33590349997394,,,,372.3281117499573,372.92440266592894,373.9922727079829,left,1.0662823329912499,None,demo,001,2025-01-26_15h03.15.556,contrast_sensitivity,2024.2.4,None,2025-01-26 15h03.22.047040 -0500,
0.001,-1,0.2,350,0,5,left,0.5695137080037966,None,5,0,350,24,374.003176374943,,,,373.9942559580086,374.5901829999639,375.17264999996405,left,0.5695137080037966,None,demo,001,2025-01-26_15h03.15.556,contrast_sensitivity,2024.2.4,None,2025-01-26 15h03.22.047040 -0500,
1e-07,-1,0.4,351,1,5,right,1.1214443749049678,None,5,1,351,8,375.1812568330206,,,,375.1744939580094,375.770105915959,376.90564916597214,right,1.1214443749049678,None,demo,001,2025-01-26_15h03.15.556,contrast_sensitivity,2024.2.4,None,2025-01-26 15h03.22.047040 -0500,
1.0,-1,0.4,352,2,5,left,0.46438370808027685,None,5,2,352,13,376.9200077080168,,,,376.90731745795347,377.50321041594725,377.97361645800993,left,0.46438370808027685,None,demo,001,2025-01-26_15h03.15.556,contrast_sensitivity,2024.2.4,None,2025-01-26 15h03.22.047040 -0500,
1e-07,-1,0.05,353,3,5,left,1.123802833026275,None,5,3,353,50,377.98678775003646,,,,377.9757212080294,378.5697682079626,379.70549370802473,left,1.123802833026275,None,demo,001,2025-01-26_15h03.15.556,contrast_sensitivity,2024.2.4,None,2025-01-26 15h03.22.047040 -0500,
1.0,1,0.4,354,4,5,right,0.46138337498996407,None,5,4,354,6,379.7140069999732,,,,379.70763341593556,380.3201298749773,380.78844008303713,right,0.46138337498996407,None,demo,001,2025-01-26_15h03.15.556,contrast_sensitivity,2024.2.4,None,2025-01-26 15h03.22.047040 -0500,
1.0,-1,0.05,355,5,5,left,0.4722220420371741,None,5,5,355,55,380.7969372079242,,,,380.7904257909395,381.3866704159882,381.872237790958,left,0.4722220420371741,None,demo,001,2025-01-26_15h03.15.556,contrast_sensitivity,2024.2.4,None,2025-01-26 15h03.22.047040 -0500,
0.1,1,0.1,356,6,5,right,0.5502029580529779,None,5,6,356,33,381.87927737494465,,,,381.87382087495644,382.4871342499973,383.0423254999332,right,0.5502029580529779,None,demo,001,2025-01-26_15h03.15.556,contrast_sensitivity,2024.2.4,None,2025-01-26 15h03.22.047040 -0500,
1e-05,-1,0.2,357,7,5,left,0.39559466601349413,None,5,7,357,23,383.0528568329755,,,,383.04406949994154,383.64183095796034,384.0427397079766,left,0.39559466601349413,None,demo,001,2025-01-26_15h03.15.556,contrast_sensitivity,2024.2.4,None,2025-01-26 15h03.22.047040 -0500,
0.1,1,0.2,358,8,5,right,6.244540333049372,None,5,8,358,19,384.05298549996223,,,,384.04467600001954,384.64101108303294,390.8888059159508,right,6.244540333049372,None,demo,001,2025-01-26_15h03.15.556,contrast_sensitivity,2024.2.4,None,2025-01-26 15h03.22.047040 -0500,
1.0,1,0.1,359,9,5,right,0.3053335000295192,None,5,9,359,34,390.8965089159319,,,,390.89093395799864,391.50383137492463,391.8226809159387,right,0.3053335000295192,None,demo,001,2025-01-26_15h03.15.556,contrast_sensitivity,2024.2.4,None,2025-01-26 15h03.22.047040 -0500,
0.001,-1,0.4,360,10,5,left,0.43220208398997784,None,5,10,360,10,391.83152183296625,,,,391.82466533302795,392.42011308297515,392.8558029580163,left,0.43220208398997784,None,demo,001,2025-01-26_15h03.15.556,contrast_sensitivity,2024.2.4,None,2025-01-26 15h03.22.047040 -0500,
1.0,1,0.025,361,11,5,right,0.32942670793272555,None,5,11,361,62,392.8623293329729,,,,392.85793554096017,393.4537004579324,393.78909337497316,right,0.32942670793272555,None,demo,001,2025-01-26_15h03.15.556,contrast_sensitivity,2024.2.4,None,2025-01-26 15h03.22.047040 -0500,
1e-09,1,0.1,362,12,5,right,0.4394682919373736,None,5,12,362,28,393.79711599997245,,,,393.791282457998,394.3866718329955,394.83961704093963,right,0.4394682919373736,None,demo,001,2025-01-26_15h03.15.556,contrast_sensitivity,2024.2.4,None,2025-01-26 15h03.22.047040 -0500,
0.001,-1,0.1,363,13,5,left,0.5841912919422612,None,5,13,363,38,394.84802766598295,,,,394.84144441597164,395.4368525829632,396.02557574992534,left,0.5841912919422612,None,demo,001,2025-01-26_15h03.15.556,contrast_sensitivity,2024.2.4,None,2025-01-26 15h03.22.047040 -0500,
1e-09,-1,0.025,364,14,5,left,0.6482151669915766,None,5,14,364,63,396.03641429101117,,,,396.02749187499285,396.62492270802613,397.2769931249786,left,0.6482151669915766,None,demo,001,2025-01-26_15h03.15.556,contrast_sensitivity,2024.2.4,None,2025-01-26 15h03.22.047040 -0500,
1e-09,1,0.4,365,15,5,left,0.7000825830036774,None,5,15,365,0,397.2853093750309,,,,397.2789812909905,397.8749302079668,398.5886283329455,left,0.7000825830036774,None,demo,001,2025-01-26_15h03.15.556,contrast_sensitivity,2024.2.4,None,2025-01-26 15h03.22.047040 -0500,
1e-09,1,0.05,366,16,5,left,1.6254847919335589,None,5,16,366,42,398.5969720829744,,,,398.5905748329824,399.1865099580027,400.822128291009,left,1.6254847919335589,None,demo,001,2025-01-26_15h03.15.556,contrast_sensitivity,2024.2.4,None,2025-01-26 15h03.22.047040 -0500,
