contrast,location,cpd,thisN,thisTrialN,thisRepN,response.keys,response.rt,response.duration,trials.thisRepN,trials.thisTrialN,trials.thisN,trials.thisIndex,thisRow.t,notes,begin_experiment.started,begin_experiment.stopped,trial.started,response.started,trial.stopped,trials.response.keys,trials.response.rt,trials.response.duration,participant,session,date,expName,psychopyVersion,frameRate,expStart,
,,,,,,,,,,,,,,,0.007121291011571884,5.774529958027415,,,,,,,demo,001,2025-02-03_14h11.15.662,contrast_sensitivity,2024.2.4,None,2025-02-03 14h11.22.738845 -0500,
0.01,1,4,0,0,0,left,0.737854624981992,None,0,0,0,32,5.788581707980484,,,,5.782637291005813,6.369906458072364,7.114762791083194,left,0.737854624981992,None,demo,001,2025-02-03_14h11.15.662,contrast_sensitivity,2024.2.4,None,2025-02-03 14h11.22.738845 -0500,
0.01,1,8,1,1,0,right,0.3630972079699859,None,0,1,1,46,7.123210750054568,,,,7.117096457979642,7.712434375076555,8.081278415978886,right,0.3630972079699859,None,demo,001,2025-02-03_14h11.15.662,contrast_sensitivity,2024.2.4,None,2025-02-03 14h11.22.738845 -0500,
1e-08,-1,8,2,2,0,right,0.33241437491960824,None,0,2,2,49,8.087721750023775,,,,8.08269625005778,8.680069666006602,9.0148837500019,right,0.33241437491960824,None,demo,001,2025-02-03_14h11.15.662,contrast_sensitivity,2024.2.4,None,2025-02-03 14h11.22.738845 -0500,
1e-06,1,8,3,3,0,right,0.19913691701367497,None,0,3,3,43,9.032114166067913,,,,9.017233874998055,9.612355165998451,9.813273541047238,right,0.19913691701367497,None,demo,001,2025-02-03_14h11.15.662,contrast_sensitivity,2024.2.4,None,2025-02-03 14h11.22.738845 -0500,
1.0,1,4,4,4,0,right,0.1971129160374403,None,0,4,4,34,9.819221041048877,,,,9.814531499985605,10.411350833019242,10.613106750068255,right,0.1971129160374403,None,demo,001,2025-02-03_14h11.15.662,contrast_sensitivity,2024.2.4,None,2025-02-03 14h11.22.738845 -0500,
0.01,-1,4,5,5,0,left,0.04717895807698369,None,0,5,5,39,10.618462415994145,,,,10.614485166035593,11.211341415997595,11.26346512499731,left,0.04717895807698369,None,demo,001,2025-02-03_14h11.15.662,contrast_sensitivity,2024.2.4,None,2025-02-03 14h11.22.738845 -0500,
1e-08,1,16,6,6,0,left,0.3199869580566883,None,0,6,6,56,11.27018804103136,,,,11.265301958075725,11.862428999971598,12.185467540984973,left,0.3199869580566883,None,demo,001,2025-02-03_14h11.15.662,contrast_sensitivity,2024.2.4,None,2025-02-03 14h11.22.738845 -0500,
0.1,-1,8,7,7,0,left,0.11097974900621921,None,0,7,7,54,12.195356916054152,,,,12.187017625081353,12.78345674998127,12.89807658304926,left,0.11097974900621921,None,demo,001,2025-02-03_14h11.15.662,contrast_sensitivity,2024.2.4,None,2025-02-03 14h11.22.738845 -0500,
1e-06,1,2,8,8,0,right,0.13325845799408853,None,0,8,8,15,12.905627625063062,,,,12.899723833077587,13.496120374999009,13.63120391604025,right,0.13325845799408853,None,demo,001,2025-02-03_14h11.15.662,contrast_sensitivity,2024.2.4,None,2025-02-03 14h11.22.738845 -0500,
1.0,1,16,9,9,0,right,0.01599374902434647,None,0,9,9,62,13.64602304098662,,,,13.633216415997595,14.229398916009814,14.247727832989767,right,0.01599374902434647,None,demo,001,2025-02-03_14h11.15.662,contrast_sensitivity,2024.2.4,None,2025-02-03 14h11.22.738845 -0500,
0.0001,-1,16,10,10,0,right,0.14180329197552055,None,0,10,10,65,14.256155541050248,,,,14.2498768750811,14.845653707976453,14.997539083007723,right,0.14180329197552055,None,demo,001,2025-02-03_14h11.15.662,contrast_sensitivity,2024.2.4,None,2025-02-03 14h11.22.738845 -0500,
0.1,1,1,11,11,0,right,0.018588208011351526,None,0,11,11,5,15.00662962498609,,,,14.99971383297816,15.612738708034158,15.634179249987938,right,0.018588208011351526,None,demo,001,2025-02-03_14h11.15.662,contrast_sensitivity,2024.2.4,None,2025-02-03 14h11.22.738845 -0500,
1e-06,1,1,12,12,0,right,0.22651412500999868,None,0,12,12,1,15.645484708016738,,,,15.636654625064693,16.228979000006802,16.465518790995702,right,0.22651412500999868,None,demo,001,2025-02-03_14h11.15.662,contrast_sensitivity,2024.2.4,None,2025-02-03 14h11.22.738845 -0500,
0.001,-1,4,13,13,0,left,0.04577074991539121,None,0,13,13,38,16.47435916599352,,,,16.467647750047036,17.062492083059624,17.114354375051335,left,0.04577074991539121,None,demo,001,2025-02-03_14h11.15.662,contrast_sensitivity,2024.2.4,None,2025-02-03 14h11.22.738845 -0500,
0.001,1,8,14,14,0,right,0.1437657920178026,None,0,14,14,45,17.120826125028543,,,,17.11660645797383,17.716548125026748,17.86492825008463,right,0.1437657920178026,None,demo,001,2025-02-03_14h11.15.662,contrast_sensitivity,2024.2.4,None,2025-02-03 14h11.22.738845 -0500,
0.0001,1,2,15,15,0,left,0.1997244170634076,None,0,15,15,16,17.872876000008546,,,,17.86697400000412,18.461514833034016,18.662879375042394,left,0.1997244170634076,None,demo,001,2025-02-03_14h11.15.662,contrast_sensitivity,2024.2.4,None,2025-02-03 14h11.22.738845 -0500,
0.0001,-1,8,16,16,0,left,0.524603542056866,None,0,16,16,51,18.66841179097537,,,,18.66441600001417,19.261646625003777,19.797591708018444,left,0.524603542056866,None,demo,001,2025-02-03_14h11.15.662,contrast_sensitivity,2024.2.4,None,2025-02-03 14h11.22.738845 -0500,
0.001,-1,2,17,17,0,left,0.5284427079604939,None,0,17,17,24,19.80616820801515,,,,19.799701208015904,20.395778250065632,20.93216820806265,left,0.5284427079604939,None,demo,001,2025-02-03_14h11.15.662,contrast_sensitivity,2024.2.4,None,2025-02-03 14h11.22.738845 -0500,
1e-06,-1,4,18,18,0,left,0.6281277080997825,None,0,18,18,36,20.94100808305666,,,,20.93462262500543,21.52921983296983,22.164362624986097,left,0.6281277080997825,None,demo,001,2025-02-03_14h11.15.662,contrast_sensitivity,2024.2.4,None,2025-02-03 14h11.22.738845 -0500,
0.001,1,4,19,19,0,left,0.8136004999978468,None,0,19,19,31,22.17045874998439,,,,22.16597041604109,22.762563416035846,23.58162320801057,left,0.8136004999978468,None,demo,001,2025-02-03_14h11.15.662,contrast_sensitivity,2024.2.4,None,2025-02-03 14h11.22.738845 -0500,
1e-08,-1,1,20,20,0,left,0.351847333018668,None,0,20,20,7,23.589793832972646,,,,23.583648915984668,24.19635158299934,24.56466224999167,left,0.351847333018668,None,demo,001,2025-02-03_14h11.15.662,contrast_sensitivity,2024.2.4,None,2025-02-03 14h11.22.738845 -0500,
0.001,-1,16,21,21,0,right,0.22614458296447992,None,0,21,21,66,24.5793071660446,,,,24.566705666016787,25.16194183297921,25.395933541003615,right,0.22614458296447992,None,demo,001,2025-02-03_14h11.15.662,contrast_sensitivity,2024.2.4,None,2025-02-03 14h11.22.738845 -0500,
0.1,1,2,22,22,0,right,0.06550641602370888,None,0,22,22,19,25.400840874994174,,,,25.39715633308515,25.996592083014548,26.065176874981262,right,0.06550641602370888,None,demo,001,2025-02-03_14h11.15.662,contrast_sensitivity,2024.2.4,None,2025-02-03 14h11.22.738845 -0500,
1e-08,-1,2,23,23,0,right,0.26539562502875924,None,0,23,23,21,26.078159208060242,,,,26.065719458041713,26.661666375002824,26.930166041012853,right,0.26539562502875924,None,demo,001,2025-02-03_14h11.15.662,contrast_sensitivity,2024.2.4,None,2025-02-03 14h11.22.738845 -0500,
0.001,1,2,24,24,0,left,0.12128291698172688,None,0,24,24,17,26.936145625077188,,,,26.931670624995604,27.528747541015036,27.664053000044078,left,0.12128291698172688,None,demo,001,2025-02-03_14h11.15.662,contrast_sensitivity,2024.2.4,None,2025-02-03 14h11.22.738845 -0500,
0.001,-1,1,25,25,0,right,0.2057367489906028,None,0,25,25,10,27.672930791042745,,,,27.66604520799592,28.262361207976937,28.48130616603885,right,0.2057367489906028,None,demo,001,2025-02-03_14h11.15.662,contrast_sensitivity,2024.2.4,None,2025-02-03 14h11.22.738845 -0500,
1e-06,1,16,26,26,0,left,0.4959858750225976,None,0,26,26,57,28.495733875082806,,,,28.483686625026166,29.096149165998213,29.597865291056223,left,0.4959858750225976,None,demo,001,2025-02-03_14h11.15.662,contrast_sensitivity,2024.2.4,None,2025-02-03 14h11.22.738845 -0500,
0.0001,1,16,27,27,0,right,0.2554023740813136,None,0,27,27,58,29.60628608299885,,,,29.600052583031356,30.196596166002564,30.46488650003448,right,0.2554023740813136,None,demo,001,2025-02-03_14h11.15.662,contrast_sensitivity,2024.2.4,None,2025-02-03 14h11.22.738845 -0500,
1e-06,1,4,28,28,0,right,0.15655320801306516,None,0,28,28,29,30.47373395797331,,,,30.467159833060578,31.0624030000763,31.230143708060496,right,0.15655320801306516,None,demo,001,2025-02-03_14h11.15.662,contrast_sensitivity,2024.2.4,None,2025-02-03 14h11.22.738845 -0500,
0.01,-1,16,29,29,0,left,0.40292862500064075,None,0,29,29,67,31.235612666001543,,,,31.23169375001453,31.82998787506949,32.24655983306002,left,0.40292862500064075,None,demo,001,2025-02-03_14h11.15.662,contrast_sensitivity,2024.2.4,None,2025-02-03 14h11.22.738845 -0500,
0.001,1,16,30,30,0,right,0.015117707895115018,None,0,30,30,59,32.252536625019275,,,,32.247933333041146,32.83381837501656,32.851286375080235,right,0.015117707895115018,None,demo,001,2025-02-03_14h11.15.662,contrast_sensitivity,2024.2.4,None,2025-02-03 14h11.22.738845 -0500,
0.1,-1,1,31,31,0,left,0.16001562494784594,None,0,31,31,12,32.86282762500923,,,,32.85349037498236,33.44905854098033,33.6156457910547,left,0.16001562494784594,None,demo,001,2025-02-03_14h11.15.662,contrast_sensitivity,2024.2.4,None,2025-02-03 14h11.22.738845 -0500,
1.0,-1,2,32,32,0,left,1.047873083036393,None,0,32,32,27,33.624698415980674,,,,33.618090208037756,34.21203275001608,35.262830874999054,left,1.047873083036393,None,demo,001,2025-02-03_14h11.15.662,contrast_sensitivity,2024.2.4,None,2025-02-03 14h11.22.738845 -0500,
0.1,1,16,33,33,0,right,0.24318195809610188,None,0,33,33,61,35.268484957981855,,,,35.2641241250094,35.86269179102965,36.11475883307867,right,0.24318195809610188,None,demo,001,2025-02-03_14h11.15.662,contrast_sensitivity,2024.2.4,None,2025-02-03 14h11.22.738845 -0500,
1.0,-1,1,34,34,0,left,0.32694058294873685,None,0,34,34,13,36.12254762498196,,,,36.11688554100692,36.712114040972665,37.04859970801044,left,0.32694058294873685,None,demo,001,2025-02-03_14h11.15.662,contrast_sensitivity,2024.2.4,None,2025-02-03 14h11.22.738845 -0500,
1e-06,-1,8,35,35,0,left,0.10333604109473526,None,0,35,35,50,37.056510625057854,,,,37.05089370801579,37.64548020798247,37.75215966603719,left,0.10333604109473526,None,demo,001,2025-02-03_14h11.15.662,contrast_sensitivity,2024.2.4,None,2025-02-03 14h11.22.738845 -0500,
0.1,1,8,36,36,0,right,0.1319193330127746,None,0,36,36,47,37.761168500059284,,,,37.75495387497358,38.348929375060834,38.48630308301654,right,0.1319193330127746,None,demo,001,2025-02-03_14h11.15.662,contrast_sensitivity,2024.2.4,None,2025-02-03 14h11.22.738845 -0500,
0.0001,1,8,37,37,0,right,0.17669287498574704,None,0,37,37,44,38.49447425000835,,,,38.4882849160349,39.09623491601087,39.28165641601663,right,0.17669287498574704,None,demo,001,2025-02-03_14h11.15.662,contrast_sensitivity,2024.2.4,None,2025-02-03 14h11.22.738845 -0500,
1.0,1,2,38,38,0,right,0.03670374897774309,None,0,38,38,20,39.289754958008416,,,,39.28398470801767,39.87908145796973,39.91839250002522,right,0.03670374897774309,None,demo,001,2025-02-03_14h11.15.662,contrast_sensitivity,2024.2.4,None,2025-02-03 14h11.22.738845 -0500,
1.0,-1,8,39,39,0,left,0.12719479098450392,None,0,39,39,55,39.928894000011496,,,,39.92053595802281,40.517567291040905,40.65095529099926,left,0.12719479098450392,None,demo,001,2025-02-03_14h11.15.662,contrast_sensitivity,2024.2.4,None,2025-02-03 14h11.22.738845 -0500,
0.1,-1,2,40,40,0,left,0.11813254200387746,None,0,40,40,26,40.66223695804365,,,,40.65294120798353,41.262619291082956,41.38522712502163,left,0.11813254200387746,None,demo,001,2025-02-03_14h11.15.662,contrast_sensitivity,2024.2.4,None,2025-02-03 14h11.22.738845 -0500,
0.0001,-1,2,41,41,0,left,0.15555529098492116,None,0,41,41,23,41.39543745806441,,,,41.38764316600282,41.98319933307357,42.14819779107347,left,0.15555529098492116,None,demo,001,2025-02-03_14h11.15.662,contrast_sensitivity,2024.2.4,None,2025-02-03 14h11.22.738845 -0500,
0.1,1,4,42,42,0,right,0.17391499993391335,None,0,42,42,33,42.15666512504686,,,,42.15024979098234,42.7447698750766,42.92999700002838,right,0.17391499993391335,None,demo,001,2025-02-03_14h11.15.662,contrast_sensitivity,2024.2.4,None,2025-02-03 14h11.22.738845 -0500,
0.1,-1,16,43,43,0,left,0.1784115000627935,None,0,43,43,68,42.93530587502755,,,,42.93157458305359,43.528296791017056,43.71453383297194,left,0.1784115000627935,None,demo,001,2025-02-03_14h11.15.662,contrast_sensitivity,2024.2.4,None,2025-02-03 14h11.22.738845 -0500,
1e-06,-1,1,44,44,0,left,0.0701865409500897,None,0,44,44,8,43.72241016605403,,,,43.71674541605171,44.31245679105632,44.38493112497963,left,0.0701865409500897,None,demo,001,2025-02-03_14h11.15.662,contrast_sensitivity,2024.2.4,None,2025-02-03 14h11.22.738845 -0500,
0.001,-1,8,45,45,0,left,0.10084125003777444,None,0,45,45,52,44.395352541003376,,,,44.38737883302383,44.9837706660619,45.08987333299592,left,0.10084125003777444,None,demo,001,2025-02-03_14h11.15.662,contrast_sensitivity,2024.2.4,None,2025-02-03 14h11.22.738845 -0500,
1e-06,-1,16,46,46,0,left,0.18776987493038177,None,0,46,46,64,45.11238862504251,,,,45.09126220806502,45.69582970801275,45.89764658303466,left,0.18776987493038177,None,demo,001,2025-02-03_14h11.15.662,contrast_sensitivity,2024.2.4,None,2025-02-03 14h11.22.738845 -0500,
1e-08,1,4,47,47,0,right,0.5409670000663027,None,0,47,47,28,45.906638415995985,,,,45.90015095798299,46.49564995802939,47.04936983308289,right,0.5409670000663027,None,demo,001,2025-02-03_14h11.15.662,contrast_sensitivity,2024.2.4,None,2025-02-03 14h11.22.738845 -0500,
0.01,-1,1,48,48,0,right,0.5518198329955339,None,0,48,48,11,47.06249150005169,,,,47.05154120805673,47.64577470801305,48.203262750059366,right,0.5518198329955339,None,demo,001,2025-02-03_14h11.15.662,contrast_sensitivity,2024.2.4,None,2025-02-03 14h11.22.738845 -0500,
1e-08,1,1,49,49,0,left,0.2802811659639701,None,0,49,49,0,48.21154354105238,,,,48.20553837507032,48.79928204102907,49.085377915995196,left,0.2802811659639701,None,demo,001,2025-02-03_14h11.15.662,contrast_sensitivity,2024.2.4,None,2025-02-03 14h11.22.738845 -0500,
1.0,1,8,50,50,0,right,0.14003670797683299,None,0,50,50,48,49.09545820800122,,,,49.08769850002136,49.68366895802319,49.83173016598448,right,0.14003670797683299,None,demo,001,2025-02-03_14h11.15.662,contrast_sensitivity,2024.2.4,None,2025-02-03 14h11.22.738845 -0500,
1.0,1,1,51,51,0,right,0.08155016601085663,None,0,51,51,6,49.83990195801016,,,,49.834181374986656,50.428979083080776,50.515051541035064,right,0.08155016601085663,None,demo,001,2025-02-03_14h11.15.662,contrast_sensitivity,2024.2.4,None,2025-02-03 14h11.22.738845 -0500,
1.0,-1,16,52,52,0,left,0.19577258301433176,None,0,52,52,69,50.523716291063465,,,,50.51741020800546,51.111694875056855,51.31268908304628,left,0.19577258301433176,None,demo,001,2025-02-03_14h11.15.662,contrast_sensitivity,2024.2.4,None,2025-02-03 14h11.22.738845 -0500,
1e-06,-1,2,53,53,0,left,0.21808124997187406,None,0,53,53,22,51.31827108305879,,,,51.31418320804369,51.90044800005853,52.13149079098366,left,0.21808124997187406,None,demo,001,2025-02-03_14h11.15.662,contrast_sensitivity,2024.2.4,None,2025-02-03 14h11.22.738845 -0500,
0.01,1,16,54,54,0,left,0.16016641608439386,None,0,54,54,60,52.14043908298481,,,,52.13365033303853,52.72927512507886,52.89833479106892,left,0.16016641608439386,None,demo,001,2025-02-03_14h11.15.662,contrast_sensitivity,2024.2.4,None,2025-02-03 14h11.22.738845 -0500,
1.0,-1,4,55,55,0,left,0.07768570794723928,None,0,55,55,41,52.9074839160312,,,,52.9007616660092,53.49689083301928,53.58105395804159,left,0.07768570794723928,None,demo,001,2025-02-03_14h11.15.662,contrast_sensitivity,2024.2.4,None,2025-02-03 14h11.22.738845 -0500,
0.01,1,1,56,56,0,right,0.46926166606135666,None,0,56,56,4,53.58957283303607,,,,53.583311832975596,54.17914708307944,54.65144720801618,right,0.46926166606135666,None,demo,001,2025-02-03_14h11.15.662,contrast_sensitivity,2024.2.4,None,2025-02-03 14h11.22.738845 -0500,
0.0001,-1,4,57,57,0,left,0.1472636240068823,None,0,57,57,37,54.774768957984634,,,,54.770230458001606,55.26313204097096,55.413797500077635,left,0.1472636240068823,None,demo,001,2025-02-03_14h11.15.662,contrast_sensitivity,2024.2.4,None,2025-02-03 14h11.22.738845 -0500,
0.01,1,2,58,58,0,right,0.126718332991004,None,0,58,58,18,55.4209366660798,,,,55.415810083039105,56.012691333075054,56.148125500069,right,0.126718332991004,None,demo,001,2025-02-03_14h11.15.662,contrast_sensitivity,2024.2.4,None,2025-02-03 14h11.22.738845 -0500,
1e-08,-1,16,59,59,0,right,0.2814913740148768,None,0,59,59,63,56.15571754099801,,,,56.15043358306866,56.745888250065036,57.031486041028984,right,0.2814913740148768,None,demo,001,2025-02-03_14h11.15.662,contrast_sensitivity,2024.2.4,None,2025-02-03 14h11.22.738845 -0500,
0.0001,1,1,60,60,0,left,0.6254122910322621,None,0,60,60,2,57.03839550004341,,,,57.033657458028756,57.629086249973625,58.26494641602039,left,0.6254122910322621,None,demo,001,2025-02-03_14h11.15.662,contrast_sensitivity,2024.2.4,None,2025-02-03 14h11.22.738845 -0500,
1e-08,1,8,61,61,0,left,0.37326508294790983,None,0,61,61,42,58.27383879106492,,,,58.26731700007804,58.86201795807574,59.24756775004789,left,0.37326508294790983,None,demo,001,2025-02-03_14h11.15.662,contrast_sensitivity,2024.2.4,None,2025-02-03 14h11.22.738845 -0500,
1e-08,1,2,62,62,0,right,0.657879333011806,None,0,62,62,14,59.25358687504195,,,,59.24938137503341,59.845347958034836,60.512945999973454,right,0.657879333011806,None,demo,001,2025-02-03_14h11.15.662,contrast_sensitivity,2024.2.4,None,2025-02-03 14h11.22.738845 -0500,
0.0001,-1,1,63,63,0,left,0.3133676249999553,None,0,63,63,9,60.51903766603209,,,,60.51424124999903,61.100887582986616,61.41840545798186,left,0.3133676249999553,None,demo,001,2025-02-03_14h11.15.662,contrast_sensitivity,2024.2.4,None,2025-02-03 14h11.22.738845 -0500,
0.1,-1,4,64,64,0,left,0.09708495798986405,None,0,64,64,40,61.428760749986395,,,,61.42085574998055,62.01714254100807,62.132086333003826,left,0.09708495798986405,None,demo,001,2025-02-03_14h11.15.662,contrast_sensitivity,2024.2.4,None,2025-02-03 14h11.22.738845 -0500,
1e-08,-1,4,65,65,0,left,0.5119117910508066,None,0,65,65,35,62.14582366601098,,,,62.13419625000097,62.72930420807097,63.24781920807436,left,0.5119117910508066,None,demo,001,2025-02-03_14h11.15.662,contrast_sensitivity,2024.2.4,None,2025-02-03 14h11.22.738845 -0500,
0.001,1,1,66,66,0,right,0.2584796668961644,None,0,66,66,3,63.25564454100095,,,,63.25017133296933,63.86272520804778,64.13023966597393,right,0.2584796668961644,None,demo,001,2025-02-03_14h11.15.662,contrast_sensitivity,2024.2.4,None,2025-02-03 14h11.22.738845 -0500,
0.01,-1,8,67,67,0,left,0.4194695829646662,None,0,67,67,53,64.13602191605605,,,,64.13143079099245,64.72968429105822,65.15176520799287,left,0.4194695829646662,None,demo,001,2025-02-03_14h11.15.662,contrast_sensitivity,2024.2.4,None,2025-02-03 14h11.22.738845 -0500,
0.0001,1,4,68,68,0,left,0.4347438750555739,None,0,68,68,30,65.1620791250607,,,,65.15396837505978,65.7504162080586,66.19793358305469,left,0.4347438750555739,None,demo,001,2025-02-03_14h11.15.662,contrast_sensitivity,2024.2.4,None,2025-02-03 14h11.22.738845 -0500,
0.01,-1,2,69,69,0,right,0.20541045791469514,None,0,69,69,25,66.20636416599154,,,,66.20002954103984,66.79568666603882,67.01345629105344,right,0.20541045791469514,None,demo,001,2025-02-03_14h11.15.662,contrast_sensitivity,2024.2.4,None,2025-02-03 14h11.22.738845 -0500,
0.01,1,1,70,0,1,left,0.3324209999991581,None,1,0,70,4,67.01993804099038,,,,67.0149093749933,67.61168099998031,67.94644937501289,left,0.3324209999991581,None,demo,001,2025-02-03_14h11.15.662,contrast_sensitivity,2024.2.4,None,2025-02-03 14h11.22.738845 -0500,
0.001,1,8,71,1,1,right,0.272716791019775,None,1,1,71,45,67.95180170808453,,,,67.94796737504657,68.53438895801082,68.8145123750437,right,0.272716791019775,None,demo,001,2025-02-03_14h11.15.662,contrast_sensitivity,2024.2.4,None,2025-02-03 14h11.22.738845 -0500,
0.001,1,16,72,2,1,right,0.33871574990916997,None,1,2,72,59,68.82169175008312,,,,68.81701795803383,69.41236408299301,69.7636012500152,right,0.33871574990916997,None,demo,001,2025-02-03_14h11.15.662,contrast_sensitivity,2024.2.4,None,2025-02-03 14h11.22.738845 -0500,
0.1,-1,8,73,3,1,left,0.18268962495494634,None,1,3,73,54,69.77008008304983,,,,69.7653844159795,70.3624018750852,70.54802083305549,left,0.18268962495494634,None,demo,001,2025-02-03_14h11.15.662,contrast_sensitivity,2024.2.4,None,2025-02-03 14h11.22.738845 -0500,
0.01,-1,1,74,4,1,left,0.18904304190073162,None,1,4,74,11,70.55522087507416,,,,70.55018366605509,71.14598949998617,71.3484011250548,left,0.18904304190073162,None,demo,001,2025-02-03_14h11.15.662,contrast_sensitivity,2024.2.4,None,2025-02-03 14h11.22.738845 -0500,
1e-06,-1,16,75,5,1,left,0.7542368751019239,None,1,5,75,64,71.35781079099979,,,,71.35119375004433,71.94572879106272,72.7018352909945,left,0.7542368751019239,None,demo,001,2025-02-03_14h11.15.662,contrast_sensitivity,2024.2.4,None,2025-02-03 14h11.22.738845 -0500,
0.0001,-1,4,76,6,1,left,0.11478675005491823,None,1,6,76,37,72.71118212502915,,,,72.7041179999942,73.3002289159922,73.4182391660288,left,0.11478675005491823,None,demo,001,2025-02-03_14h11.15.662,contrast_sensitivity,2024.2.4,None,2025-02-03 14h11.22.738845 -0500,
1e-08,-1,4,77,7,1,left,0.20169349992647767,None,1,7,77,35,73.42866491607856,,,,73.42061687505338,74.01631125004496,74.2304267080035,left,0.20169349992647767,None,demo,001,2025-02-03_14h11.15.662,contrast_sensitivity,2024.2.4,None,2025-02-03 14h11.22.738845 -0500,
0.0001,1,16,78,8,1,right,0.34460233291611075,None,1,8,78,58,74.23674829106312,,,,74.23218024999369,74.82930691598449,75.18023100006394,right,0.34460233291611075,None,demo,001,2025-02-03_14h11.15.662,contrast_sensitivity,2024.2.4,None,2025-02-03 14h11.22.738845 -0500,
1e-06,-1,1,79,9,1,left,0.2976405000081286,None,1,9,79,8,75.18565374996979,,,,75.18179908301681,75.77824949997012,76.07959700003266,left,0.2976405000081286,None,demo,001,2025-02-03_14h11.15.662,contrast_sensitivity,2024.2.4,None,2025-02-03 14h11.22.738845 -0500,
0.0001,1,2,80,10,1,left,0.503577540977858,None,1,10,80,16,76.08692633302417,,,,76.08108195802197,76.66735979099758,77.18152220803313,left,0.503577540977858,None,demo,001,2025-02-03_14h11.15.662,contrast_sensitivity,2024.2.4,None,2025-02-03 14h11.22.738845 -0500,
0.001,1,2,81,11,1,left,0.38366487494204193,None,1,11,81,17,77.19028025004081,,,,77.18370045803022,77.77917416603304,78.16588879097253,left,0.38366487494204193,None,demo,001,2025-02-03_14h11.15.662,contrast_sensitivity,2024.2.4,None,2025-02-03 14h11.22.738845 -0500,
0.1,-1,16,82,12,1,left,0.16057912504766136,None,1,12,82,68,78.17889724997804,,,,78.16827683302108,78.76234262506478,78.93125483300537,left,0.16057912504766136,None,demo,001,2025-02-03_14h11.15.662,contrast_sensitivity,2024.2.4,None,2025-02-03 14h11.22.738845 -0500,
1e-08,1,2,83,13,1,left,0.1819167920621112,None,1,13,83,14,78.93965050007682,,,,78.93329458299559,79.52991366607603,79.71503304108046,left,0.1819167920621112,None,demo,001,2025-02-03_14h11.15.662,contrast_sensitivity,2024.2.4,None,2025-02-03 14h11.22.738845 -0500,
1.0,1,16,84,14,1,right,0.1847239169292152,None,1,14,84,62,79.72390275006182,,,,79.7173110410804,80.31307704106439,80.50166020798497,right,0.1847239169292152,None,demo,001,2025-02-03_14h11.15.662,contrast_sensitivity,2024.2.4,None,2025-02-03 14h11.22.738845 -0500,
0.0001,-1,1,85,15,1,left,0.842453790945001,None,1,15,85,9,80.51203316601459,,,,80.50330516602844,81.10037362505682,81.94836012506858,left,0.842453790945001,None,demo,001,2025-02-03_14h11.15.662,contrast_sensitivity,2024.2.4,None,2025-02-03 14h11.22.738845 -0500,
0.01,1,4,86,16,1,right,0.7009190409444273,None,1,16,86,32,81.95710637501907,,,,81.95050108304713,82.56278437504079,83.26731516607106,right,0.7009190409444273,None,demo,001,2025-02-03_14h11.15.662,contrast_sensitivity,2024.2.4,None,2025-02-03 14h11.22.738845 -0500,
1e-08,1,1,87,17,1,left,0.40042770793661475,None,1,17,87,0,83.277977416059,,,,83.26903704099823,83.86633216601331,84.26819791598246,left,0.40042770793661475,None,demo,001,2025-02-03_14h11.15.662,contrast_sensitivity,2024.2.4,None,2025-02-03 14h11.22.738845 -0500,
1.0,-1,8,88,18,1,left,0.4143099579960108,None,1,18,88,55,84.27784287498798,,,,84.2696959580062,84.86240062501747,85.28182612499222,left,0.4143099579960108,None,demo,001,2025-02-03_14h11.15.662,contrast_sensitivity,2024.2.4,None,2025-02-03 14h11.22.738845 -0500,
0.001,1,1,89,19,1,left,0.4523058329941705,None,1,19,89,3,85.29157975001726,,,,85.2841499580536,85.87935362500139,86.33525970799383,left,0.4523058329941705,None,demo,001,2025-02-03_14h11.15.662,contrast_sensitivity,2024.2.4,None,2025-02-03 14h11.22.738845 -0500,
0.01,-1,8,90,20,1,left,0.42837104201316833,None,1,20,90,53,86.34448845800944,,,,86.33786604099441,86.93425429100171,87.36896429106127,left,0.42837104201316833,None,demo,001,2025-02-03_14h11.15.662,contrast_sensitivity,2024.2.4,None,2025-02-03 14h11.22.738845 -0500,
0.0001,1,8,91,21,1,right,0.42270474904216826,None,1,21,91,44,87.37870145798661,,,,87.37149212497752,87.96709570800886,88.39807566604577,right,0.42270474904216826,None,demo,001,2025-02-03_14h11.15.662,contrast_sensitivity,2024.2.4,None,2025-02-03 14h11.22.738845 -0500,
0.1,-1,2,92,22,1,left,0.39319254097063094,None,1,22,92,26,88.40617895801552,,,,88.40040916600265,88.99559537507594,89.39790870808065,left,0.39319254097063094,None,demo,001,2025-02-03_14h11.15.662,contrast_sensitivity,2024.2.4,None,2025-02-03 14h11.22.738845 -0500,
1.0,1,1,93,23,1,right,0.3389479999896139,None,1,23,93,6,89.40682479098905,,,,89.40030833298806,89.99563804105856,90.34761166607495,right,0.3389479999896139,None,demo,001,2025-02-03_14h11.15.662,contrast_sensitivity,2024.2.4,None,2025-02-03 14h11.22.738845 -0500,
0.0001,-1,2,94,24,1,left,0.537602125084959,None,1,24,94,23,90.35618116601836,,,,90.34992583305575,90.94592666602693,91.49663354107179,left,0.537602125084959,None,demo,001,2025-02-03_14h11.15.662,contrast_sensitivity,2024.2.4,None,2025-02-03 14h11.22.738845 -0500,
0.001,-1,16,95,25,1,left,0.34564537496771663,None,1,25,95,66,91.50241087505128,,,,91.49806058302056,92.0950242910767,92.44749841606244,left,0.34564537496771663,None,demo,001,2025-02-03_14h11.15.662,contrast_sensitivity,2024.2.4,None,2025-02-03 14h11.22.738845 -0500,
1e-06,1,8,96,26,1,right,0.2607121659675613,None,1,26,96,43,92.45575745799579,,,,92.44953470805194,93.0458217910491,93.31488829106092,right,0.2607121659675613,None,demo,001,2025-02-03_14h11.15.662,contrast_sensitivity,2024.2.4,None,2025-02-03 14h11.22.738845 -0500,
1.0,1,4,97,27,1,right,0.2965266240062192,None,1,27,97,34,93.3288616250502,,,,93.31733004108537,93.91693754098378,94.2189928330481,right,0.2965266240062192,None,demo,001,2025-02-03_14h11.15.662,contrast_sensitivity,2024.2.4,None,2025-02-03 14h11.22.738845 -0500,
1e-06,1,4,98,28,1,right,0.5459746660199016,None,1,28,98,29,94.2286300000269,,,,94.22118837502785,94.81649158301298,95.36433537502307,right,0.5459746660199016,None,demo,001,2025-02-03_14h11.15.662,contrast_sensitivity,2024.2.4,None,2025-02-03 14h11.22.738845 -0500,
1.0,-1,2,99,29,1,left,0.3045068330829963,None,1,29,99,27,95.37893345800694,,,,95.36580670799594,95.96291775000282,96.2814093750203,left,0.3045068330829963,None,demo,001,2025-02-03_14h11.15.662,contrast_sensitivity,2024.2.4,None,2025-02-03 14h11.22.738845 -0500,
0.1,-1,1,100,30,1,left,0.3084666240029037,None,1,30,100,12,96.28940416604746,,,,96.28426212503109,96.87900025001727,97.19639362499584,left,0.3084666240029037,None,demo,001,2025-02-03_14h11.15.662,contrast_sensitivity,2024.2.4,None,2025-02-03 14h11.22.738845 -0500,
0.1,1,2,101,31,1,right,0.2810335410758853,None,1,31,101,19,97.20233745803125,,,,97.19769183301833,97.78333450003993,98.06866058299784,right,0.2810335410758853,None,demo,001,2025-02-03_14h11.15.662,contrast_sensitivity,2024.2.4,None,2025-02-03 14h11.22.738845 -0500,
1e-06,1,1,102,32,1,right,0.4629101250320673,None,1,32,102,1,98.07866075006314,,,,98.07080295798369,98.66645166603848,99.13611120800488,right,0.4629101250320673,None,demo,001,2025-02-03_14h11.15.662,contrast_sensitivity,2024.2.4,None,2025-02-03 14h11.22.738845 -0500,
0.1,-1,4,103,33,1,left,0.21263620804529637,None,1,33,103,40,99.14538579108194,,,,99.13858825003263,99.73176608304493,99.94695516605861,left,0.21263620804529637,None,demo,001,2025-02-03_14h11.15.662,contrast_sensitivity,2024.2.4,None,2025-02-03 14h11.22.738845 -0500,
0.1,1,8,104,34,1,right,0.15189374994952232,None,1,34,104,47,99.95329716603737,,,,99.94916054105852,100.54552016605157,100.70251275005285,right,0.15189374994952232,None,demo,001,2025-02-03_14h11.15.662,contrast_sensitivity,2024.2.4,None,2025-02-03 14h11.22.738845 -0500,
1.0,-1,4,105,35,1,left,0.14233729103580117,None,1,35,105,41,100.71100195799954,,,,100.70467550004832,101.30001433298457,101.44834708306007,left,0.14233729103580117,None,demo,001,2025-02-03_14h11.15.662,contrast_sensitivity,2024.2.4,None,2025-02-03 14h11.22.738845 -0500,
0.0001,1,4,106,36,1,right,0.282474625040777,None,1,36,106,30,101.45672154100612,,,,101.45041833305731,102.045818625018,102.33188295806758,right,0.282474625040777,None,demo,001,2025-02-03_14h11.15.662,contrast_sensitivity,2024.2.4,None,2025-02-03 14h11.22.738845 -0500,
0.001,-1,4,107,37,1,right,0.2943195420084521,None,1,37,107,38,102.33948237507138,,,,102.33401325007435,102.92900120804552,103.23165025003254,right,0.2943195420084521,None,demo,001,2025-02-03_14h11.15.662,contrast_sensitivity,2024.2.4,None,2025-02-03 14h11.22.738845 -0500,
1e-06,-1,2,108,38,1,left,0.35205779096577317,None,1,38,108,22,103.2399282080587,,,,103.23393325007055,103.82920312497299,104.1851284999866,left,0.35205779096577317,None,demo,001,2025-02-03_14h11.15.662,contrast_sensitivity,2024.2.4,None,2025-02-03 14h11.22.738845 -0500,
1e-08,-1,16,109,39,1,left,0.13774254103191197,None,1,39,109,63,104.19539870799053,,,,104.18745375005528,104.78357891598716,104.93166979099624,left,0.13774254103191197,None,demo,001,2025-02-03_14h11.15.662,contrast_sensitivity,2024.2.4,None,2025-02-03 14h11.22.738845 -0500,
1.0,1,2,110,40,1,right,0.1102055829251185,None,1,40,110,20,104.9397416660795,,,,104.93401479104068,105.52903533307835,105.64830891601741,right,0.1102055829251185,None,demo,001,2025-02-03_14h11.15.662,contrast_sensitivity,2024.2.4,None,2025-02-03 14h11.22.738845 -0500,
0.1,1,1,111,41,1,right,0.13037174998316914,None,1,41,111,5,105.65626912505832,,,,105.65054000006057,106.24584108300041,106.38096920808312,right,0.13037174998316914,None,demo,001,2025-02-03_14h11.15.662,contrast_sensitivity,2024.2.4,None,2025-02-03 14h11.22.738845 -0500,
1e-06,1,16,112,42,1,right,0.2478841660777107,None,1,42,112,57,106.38948991603684,,,,106.38308441604022,106.97929275000934,107.23108954099007,right,0.2478841660777107,None,demo,001,2025-02-03_14h11.15.662,contrast_sensitivity,2024.2.4,None,2025-02-03 14h11.22.738845 -0500,
1e-08,1,4,113,43,1,right,0.5719554160023108,None,1,43,113,28,107.2400452910224,,,,107.2331498330459,107.82819966599345,108.41217158304062,right,0.5719554160023108,None,demo,001,2025-02-03_14h11.15.662,contrast_sensitivity,2024.2.4,None,2025-02-03 14h11.22.738845 -0500,
0.001,-1,1,114,44,1,left,0.25351450010202825,None,1,44,114,10,108.41571983299218,,,,108.41332920803688,109.00076587498188,109.26546154101379,left,0.25351450010202825,None,demo,001,2025-02-03_14h11.15.662,contrast_sensitivity,2024.2.4,None,2025-02-03 14h11.22.738845 -0500,
0.01,-1,2,115,45,1,left,0.30803762492723763,None,1,45,115,25,109.27418708300684,,,,109.26778720808215,109.86204120807815,110.18137758306693,left,0.30803762492723763,None,demo,001,2025-02-03_14h11.15.662,contrast_sensitivity,2024.2.4,None,2025-02-03 14h11.22.738845 -0500,
0.1,1,16,116,46,1,right,0.2472731659654528,None,1,46,116,61,110.19014816603158,,,,110.18382933305111,110.79683433298487,111.04912979097571,right,0.2472731659654528,None,demo,001,2025-02-03_14h11.15.662,contrast_sensitivity,2024.2.4,None,2025-02-03 14h11.22.738845 -0500,
1e-06,-1,4,117,47,1,left,0.19369737501256168,None,1,47,117,36,111.06253445800394,,,,111.05127683305182,111.66338558297139,111.86451275006402,left,0.19369737501256168,None,demo,001,2025-02-03_14h11.15.662,contrast_sensitivity,2024.2.4,None,2025-02-03 14h11.22.738845 -0500,
1.0,-1,1,118,48,1,left,0.20977245806716383,None,1,48,118,13,111.87913304101676,,,,111.8661342910491,112.48026545799803,112.69844879105221,left,0.20977245806716383,None,demo,001,2025-02-03_14h11.15.662,contrast_sensitivity,2024.2.4,None,2025-02-03 14h11.22.738845 -0500,
0.001,1,4,119,49,1,left,0.2263133330270648,None,1,49,119,31,112.71248816605657,,,,112.70052175002638,113.29475754103623,113.5318343329709,left,0.2263133330270648,None,demo,001,2025-02-03_14h11.15.662,contrast_sensitivity,2024.2.4,None,2025-02-03 14h11.22.738845 -0500,
0.01,1,8,120,50,1,right,0.20537424902431667,None,1,50,120,46,113.5455451660091,,,,113.53424291603733,114.14612904097885,114.36411887500435,right,0.20537424902431667,None,demo,001,2025-02-03_14h11.15.662,contrast_sensitivity,2024.2.4,None,2025-02-03 14h11.22.738845 -0500,
0.01,1,16,121,51,1,left,0.1925878330366686,None,1,51,121,60,114.37265737506095,,,,114.36590612505097,114.9614084160421,115.1642177910544,left,0.1925878330366686,None,demo,001,2025-02-03_14h11.15.662,contrast_sensitivity,2024.2.4,None,2025-02-03 14h11.22.738845 -0500,
1e-08,1,16,122,52,1,left,0.17262537498027086,None,1,52,122,56,115.1728685409762,,,,115.16629420802929,115.76131737499963,115.94599237502553,left,0.17262537498027086,None,demo,001,2025-02-03_14h11.15.662,contrast_sensitivity,2024.2.4,None,2025-02-03 14h11.22.738845 -0500,
1e-08,-1,8,123,53,1,left,0.44344566599465907,None,1,53,123,49,115.95123433298431,,,,115.94724929099903,116.54467083304189,116.99764875008259,left,0.44344566599465907,None,demo,001,2025-02-03_14h11.15.662,contrast_sensitivity,2024.2.4,None,2025-02-03 14h11.22.738845 -0500,
0.0001,-1,8,124,54,1,left,0.2352918330579996,None,1,54,124,51,117.01306966599077,,,,116.99983812507708,117.59671337506734,117.83528975001536,left,0.2352918330579996,None,demo,001,2025-02-03_14h11.15.662,contrast_sensitivity,2024.2.4,None,2025-02-03 14h11.22.738845 -0500,
1e-08,1,8,125,55,1,right,0.39173975004814565,None,1,55,125,42,117.84527966601308,,,,117.83771995804273,118.43320862506516,118.83103283308446,right,0.39173975004814565,None,demo,001,2025-02-03_14h11.15.662,contrast_sensitivity,2024.2.4,None,2025-02-03 14h11.22.738845 -0500,
0.01,-1,16,126,56,1,left,0.19503666600212455,None,1,56,126,67,118.838601666037,,,,118.83423920802306,119.42902350006625,119.63074537506327,left,0.19503666600212455,None,demo,001,2025-02-03_14h11.15.662,contrast_sensitivity,2024.2.4,None,2025-02-03 14h11.22.738845 -0500,
0.0001,1,1,127,57,1,left,0.9498942079953849,None,1,57,127,2,119.63802308298182,,,,119.6329646250233,120.22894066607114,121.18165454105474,left,0.9498942079953849,None,demo,001,2025-02-03_14h11.15.662,contrast_sensitivity,2024.2.4,None,2025-02-03 14h11.22.738845 -0500,
0.01,-1,4,128,58,1,left,0.469589333049953,None,1,58,128,39,121.19039541599341,,,,121.18396141601261,121.77920658304356,122.25106462498661,left,0.469589333049953,None,demo,001,2025-02-03_14h11.15.662,contrast_sensitivity,2024.2.4,None,2025-02-03 14h11.22.738845 -0500,
0.001,-1,8,129,59,1,left,0.47586916596628726,None,1,59,129,52,122.2620820000302,,,,122.25317508308217,122.84588245803025,123.32970941602252,left,0.47586916596628726,None,demo,001,2025-02-03_14h11.15.662,contrast_sensitivity,2024.2.4,None,2025-02-03 14h11.22.738845 -0500,
1e-08,-1,1,130,60,1,left,0.8316443330841139,None,1,60,130,7,123.33474483306054,,,,123.33094137499575,123.92816483299248,124.7650607500691,left,0.8316443330841139,None,demo,001,2025-02-03_14h11.15.662,contrast_sensitivity,2024.2.4,None,2025-02-03 14h11.22.738845 -0500,
1e-08,-1,2,131,61,1,right,0.6756157919298857,None,1,61,131,21,124.77393074997235,,,,124.76736391603481,125.36228091607336,126.048295833054,right,0.6756157919298857,None,demo,001,2025-02-03_14h11.15.662,contrast_sensitivity,2024.2.4,None,2025-02-03 14h11.22.738845 -0500,
1e-06,1,2,132,62,1,left,0.48501854098867625,None,1,62,132,15,126.0563852910418,,,,126.05067554104608,126.64570841600653,127.13541175005957,left,0.48501854098867625,None,demo,001,2025-02-03_14h11.15.662,contrast_sensitivity,2024.2.4,None,2025-02-03 14h11.22.738845 -0500,
0.001,-1,2,133,63,1,left,0.5056616250658408,None,1,63,133,24,127.14459287503269,,,,127.13767491606995,127.73307691607624,128.2476902080234,left,0.5056616250658408,None,demo,001,2025-02-03_14h11.15.662,contrast_sensitivity,2024.2.4,None,2025-02-03 14h11.22.738845 -0500,
1e-06,-1,8,134,64,1,left,0.4687003740109503,None,1,64,134,50,128.25578250002582,,,,128.25005187501665,128.84597316605505,129.31833804107737,left,0.4687003740109503,None,demo,001,2025-02-03_14h11.15.662,contrast_sensitivity,2024.2.4,None,2025-02-03 14h11.22.738845 -0500,
0.01,1,2,135,65,1,left,0.5060773330042139,None,1,65,135,18,129.32884733297396,,,,129.32077595801093,129.9167293329956,130.4313942079898,left,0.5060773330042139,None,demo,001,2025-02-03_14h11.15.662,contrast_sensitivity,2024.2.4,None,2025-02-03 14h11.22.738845 -0500,
0.1,1,4,136,66,1,right,0.4566167499870062,None,1,66,136,33,130.4402512080269,,,,130.43380300002173,131.02797000005376,131.49645550001878,right,0.4566167499870062,None,demo,001,2025-02-03_14h11.15.662,contrast_sensitivity,2024.2.4,None,2025-02-03 14h11.22.738845 -0500,
0.0001,-1,16,137,67,1,right,0.4060088329715654,None,1,67,137,65,131.50153029104695,,,,131.49777304101735,132.09659304097295,132.51524737500586,right,0.4060088329715654,None,demo,001,2025-02-03_14h11.15.662,contrast_sensitivity,2024.2.4,None,2025-02-03 14h11.22.738845 -0500,
1.0,1,8,138,68,1,right,0.30168066697660834,None,1,68,138,48,132.528979833005,,,,132.51724575005937,133.1118357910309,133.41572312498465,right,0.30168066697660834,None,demo,001,2025-02-03_14h11.15.662,contrast_sensitivity,2024.2.4,None,2025-02-03 14h11.22.738845 -0500,
1.0,-1,16,139,69,1,left,0.36376870796084404,None,1,69,139,69,133.42920662497636,,,,133.417959833052,134.01478108298033,134.38192287506536,left,0.36376870796084404,None,demo,001,2025-02-03_14h11.15.662,contrast_sensitivity,2024.2.4,None,2025-02-03 14h11.22.738845 -0500,
0.1,1,16,140,0,2,right,0.36046887503471226,None,2,0,140,61,134.39560983306728,,,,134.38393191597424,134.97913237498142,135.34808329096995,right,0.36046887503471226,None,demo,001,2025-02-03_14h11.15.662,contrast_sensitivity,2024.2.4,None,2025-02-03 14h11.22.738845 -0500,
0.1,1,2,141,1,2,right,0.26077008293941617,None,2,1,141,19,135.35594970802777,,,,135.35044154105708,135.94571633299347,136.21298175002448,right,0.26077008293941617,None,demo,001,2025-02-03_14h11.15.662,contrast_sensitivity,2024.2.4,None,2025-02-03 14h11.22.738845 -0500,
1.0,-1,4,142,2,2,left,0.3463404580252245,None,2,2,142,41,136.2187768330332,,,,136.214555707993,136.80068683298305,137.1521280000452,left,0.3463404580252245,None,demo,001,2025-02-03_14h11.15.662,contrast_sensitivity,2024.2.4,None,2025-02-03 14h11.22.738845 -0500,
1e-06,1,8,143,3,2,left,0.34868050005752593,None,2,3,143,43,137.16200787504204,,,,137.15422620798927,137.75079262501094,138.1144832080463,left,0.34868050005752593,None,demo,001,2025-02-03_14h11.15.662,contrast_sensitivity,2024.2.4,None,2025-02-03 14h11.22.738845 -0500,
0.1,-1,4,144,4,2,left,0.21585108304861933,None,2,4,144,40,138.12236795807257,,,,138.11686449998524,138.71256237500347,138.93343645799905,left,0.21585108304861933,None,demo,001,2025-02-03_14h11.15.662,contrast_sensitivity,2024.2.4,None,2025-02-03 14h11.22.738845 -0500,
1e-06,-1,4,145,5,2,left,0.2924752489197999,None,2,5,145,36,138.94459141604602,,,,138.93476704100613,139.53195924998727,139.82999516604468,left,0.2924752489197999,None,demo,001,2025-02-03_14h11.15.662,contrast_sensitivity,2024.2.4,None,2025-02-03 14h11.22.738845 -0500,
0.0001,1,16,146,6,2,right,0.22937466599978507,None,2,6,146,58,139.83640562498476,,,,139.83176137506962,140.42903362505604,140.6642080830643,right,0.22937466599978507,None,demo,001,2025-02-03_14h11.15.662,contrast_sensitivity,2024.2.4,None,2025-02-03 14h11.22.738845 -0500,
1e-08,-1,1,147,7,2,right,0.4330278739798814,None,2,7,147,7,140.67261137499008,,,,140.66634733299725,141.26233891607262,141.6982642080402,right,0.4330278739798814,None,demo,001,2025-02-03_14h11.15.662,contrast_sensitivity,2024.2.4,None,2025-02-03 14h11.22.738845 -0500,
1e-06,-1,2,148,8,2,right,0.6416254170471802,None,2,8,148,22,141.70515316608362,,,,141.70052391604986,142.29568650003057,142.94728387508076,right,0.6416254170471802,None,demo,001,2025-02-03_14h11.15.662,contrast_sensitivity,2024.2.4,None,2025-02-03 14h11.22.738845 -0500,
0.001,1,1,149,9,2,left,0.614431457943283,None,2,9,149,3,142.95642987499014,,,,142.94901600002777,143.54587216605432,144.1642736659851,left,0.614431457943283,None,demo,001,2025-02-03_14h11.15.662,contrast_sensitivity,2024.2.4,None,2025-02-03 14h11.22.738845 -0500,
0.01,1,8,150,10,2,right,0.4640604999149218,None,2,10,150,46,144.17407816601917,,,,144.16670833306853,144.76234862499405,145.23093725007493,right,0.4640604999149218,None,demo,001,2025-02-03_14h11.15.662,contrast_sensitivity,2024.2.4,None,2025-02-03 14h11.22.738845 -0500,
1.0,-1,2,151,11,2,left,0.4131685420870781,None,2,11,151,27,145.24002362508327,,,,145.23318137507886,145.82911341602448,146.24778700002935,left,0.4131685420870781,None,demo,001,2025-02-03_14h11.15.662,contrast_sensitivity,2024.2.4,None,2025-02-03 14h11.22.738845 -0500,
0.1,1,8,152,12,2,right,0.3294207080034539,None,2,12,152,47,146.25537899998017,,,,146.24998004105873,146.84580529097002,147.1796563330572,right,0.3294207080034539,None,demo,001,2025-02-03_14h11.15.662,contrast_sensitivity,2024.2.4,None,2025-02-03 14h11.22.738845 -0500,
0.1,1,1,153,13,2,right,0.2719640420982614,None,2,13,153,5,147.18499820807483,,,,147.18117137497757,147.778206625022,148.06316912500188,right,0.2719640420982614,None,demo,001,2025-02-03_14h11.15.662,contrast_sensitivity,2024.2.4,None,2025-02-03 14h11.22.738845 -0500,
1e-08,-1,16,154,14,2,right,0.36536933307070285,None,2,14,154,63,148.068546333001,,,,148.06457566597965,148.65083937498275,149.0183276250027,right,0.36536933307070285,None,demo,001,2025-02-03_14h11.15.662,contrast_sensitivity,2024.2.4,None,2025-02-03 14h11.22.738845 -0500,
0.01,-1,16,155,15,2,left,0.3522706660442054,None,2,15,155,67,149.02859429107048,,,,149.02114666602574,149.61689745797776,149.98142820806243,left,0.3522706660442054,None,demo,001,2025-02-03_14h11.15.662,contrast_sensitivity,2024.2.4,None,2025-02-03 14h11.22.738845 -0500,
1.0,-1,1,156,16,2,left,0.28930866601876915,None,2,16,156,13,149.9897635410307,,,,149.98344304098282,150.57910670805722,150.88142075005453,left,0.28930866601876915,None,demo,001,2025-02-03_14h11.15.662,contrast_sensitivity,2024.2.4,None,2025-02-03 14h11.22.738845 -0500,
0.0001,1,4,157,17,2,right,0.23206295806448907,None,2,17,157,30,150.8905783330556,,,,150.8836093749851,151.4790965829743,151.71481200004928,right,0.23206295806448907,None,demo,001,2025-02-03_14h11.15.662,contrast_sensitivity,2024.2.4,None,2025-02-03 14h11.22.738845 -0500,
0.0001,1,1,158,18,2,right,0.731639874051325,None,2,18,158,2,151.72267070808448,,,,151.71685241605155,152.31245704100002,153.04906283307355,right,0.731639874051325,None,demo,001,2025-02-03_14h11.15.662,contrast_sensitivity,2024.2.4,None,2025-02-03 14h11.22.738845 -0500,
0.001,-1,2,159,19,2,right,0.573493167059496,None,2,19,159,24,153.05706470797304,,,,153.05139087501448,153.64651037508156,154.2307502910262,right,0.573493167059496,None,demo,001,2025-02-03_14h11.15.662,contrast_sensitivity,2024.2.4,None,2025-02-03 14h11.22.738845 -0500,
0.001,-1,16,160,20,2,right,0.9307917080586776,None,2,20,160,66,154.24029420805164,,,,154.23318216600455,154.82917854108382,155.76275662507396,right,0.9307917080586776,None,demo,001,2025-02-03_14h11.15.662,contrast_sensitivity,2024.2.4,None,2025-02-03 14h11.22.738845 -0500,
1e-08,-1,4,161,21,2,left,0.43705841596238315,None,2,21,161,35,155.76790908304974,,,,155.7640510830097,156.350043790997,156.7980835409835,left,0.43705841596238315,None,demo,001,2025-02-03_14h11.15.662,contrast_sensitivity,2024.2.4,None,2025-02-03 14h11.22.738845 -0500,
0.1,-1,2,162,22,2,left,0.4552998330909759,None,2,22,162,26,156.80715595802758,,,,156.80058095802087,157.39467000006698,157.85181270807516,left,0.4552998330909759,None,demo,001,2025-02-03_14h11.15.662,contrast_sensitivity,2024.2.4,None,2025-02-03 14h11.22.738845 -0500,
1e-08,1,4,163,23,2,left,0.42984029091894627,None,2,23,163,28,157.86201095802244,,,,157.85423275001813,158.450137790991,158.88535229105037,left,0.42984029091894627,None,demo,001,2025-02-03_14h11.15.662,contrast_sensitivity,2024.2.4,None,2025-02-03 14h11.22.738845 -0500,
1e-08,-1,2,164,24,2,left,0.5027878329856321,None,2,24,164,21,158.8953462500358,,,,158.88777999999002,159.4960968750529,160.0008817909984,left,0.5027878329856321,None,demo,001,2025-02-03_14h11.15.662,contrast_sensitivity,2024.2.4,None,2025-02-03 14h11.22.738845 -0500,
1.0,-1,8,165,25,2,left,0.32601879199501127,None,2,25,165,55,160.01179916597903,,,,160.00285683304537,160.6128394160187,160.94622170797084,left,0.32601879199501127,None,demo,001,2025-02-03_14h11.15.662,contrast_sensitivity,2024.2.4,None,2025-02-03 14h11.22.738845 -0500,
1.0,1,2,166,26,2,right,0.3376436240505427,None,2,26,166,20,160.95179791597184,,,,160.94767400005367,161.55121941608377,161.89633829100057,right,0.3376436240505427,None,demo,001,2025-02-03_14h11.15.662,contrast_sensitivity,2024.2.4,None,2025-02-03 14h11.22.738845 -0500,
0.001,-1,4,167,27,2,right,0.316758916946128,None,2,27,167,38,161.90250529104378,,,,161.8977749160258,162.49604062503204,162.8146608750103,right,0.316758916946128,None,demo,001,2025-02-03_14h11.15.662,contrast_sensitivity,2024.2.4,None,2025-02-03 14h11.22.738845 -0500,
1e-06,-1,1,168,28,2,left,0.2744106659665704,None,2,28,168,8,162.82914041599724,,,,162.81682662502863,163.4113910830347,163.69611454103142,left,0.2744106659665704,None,demo,001,2025-02-03_14h11.15.662,contrast_sensitivity,2024.2.4,None,2025-02-03 14h11.22.738845 -0500,
1e-06,1,2,169,29,2,left,0.2970204580342397,None,2,29,169,15,163.70155316602904,,,,163.69760670803953,164.2947782910196,164.5972896660678,left,0.2970204580342397,None,demo,001,2025-02-03_14h11.15.662,contrast_sensitivity,2024.2.4,None,2025-02-03 14h11.22.738845 -0500,
0.0001,-1,8,170,30,2,left,0.4132358330534771,None,2,30,170,51,164.60590637498535,,,,164.59988770796917,165.19571804103907,165.61503604101017,left,0.4132358330534771,None,demo,001,2025-02-03_14h11.15.662,contrast_sensitivity,2024.2.4,None,2025-02-03 14h11.22.738845 -0500,
1e-08,-1,8,171,31,2,left,0.32314512494485825,None,2,31,171,49,165.62379841599613,,,,165.61745700007305,166.21262512507383,166.5478834999958,left,0.32314512494485825,None,demo,001,2025-02-03_14h11.15.662,contrast_sensitivity,2024.2.4,None,2025-02-03 14h11.22.738845 -0500,
0.001,1,2,172,32,2,left,0.4708954580128193,None,2,32,172,17,166.55628783302382,,,,166.54998495802283,167.14581483299844,167.63152670802083,left,0.4708954580128193,None,demo,001,2025-02-03_14h11.15.662,contrast_sensitivity,2024.2.4,None,2025-02-03 14h11.22.738845 -0500,
0.0001,-1,4,173,33,2,right,0.34750320797320455,None,2,33,173,37,167.64557883306406,,,,167.63339716603514,168.22924345801584,168.58166016603354,right,0.34750320797320455,None,demo,001,2025-02-03_14h11.15.662,contrast_sensitivity,2024.2.4,None,2025-02-03 14h11.22.738845 -0500,
1e-08,1,1,174,34,2,left,0.5050407920498401,None,2,34,174,0,168.59041237505153,,,,168.58372066600714,169.17863120802213,169.6975452080369,left,0.5050407920498401,None,demo,001,2025-02-03_14h11.15.662,contrast_sensitivity,2024.2.4,None,2025-02-03 14h11.22.738845 -0500,
0.001,1,4,175,35,2,left,0.36404408304952085,None,2,35,175,31,169.70687312504742,,,,169.70046991598792,170.2956326249987,170.66828783298843,left,0.36404408304952085,None,demo,001,2025-02-03_14h11.15.662,contrast_sensitivity,2024.2.4,None,2025-02-03 14h11.22.738845 -0500,
1e-08,1,16,176,36,2,right,0.34153479197993875,None,2,36,176,56,170.678864791058,,,,170.66956650000066,171.26213137502782,171.61268741602544,right,0.34153479197993875,None,demo,001,2025-02-03_14h11.15.662,contrast_sensitivity,2024.2.4,None,2025-02-03 14h11.22.738845 -0500,
0.01,-1,4,177,37,2,right,0.2585480000125244,None,2,37,177,39,171.61842820805032,,,,171.6139910829952,172.21121212502476,172.48090233304538,right,0.2585480000125244,None,demo,001,2025-02-03_14h11.15.662,contrast_sensitivity,2024.2.4,None,2025-02-03 14h11.22.738845 -0500,
0.01,-1,8,178,38,2,left,0.41848579107318074,None,2,38,178,53,172.4890184160322,,,,172.48276029108092,173.07912758307066,173.50194762507454,left,0.41848579107318074,None,demo,001,2025-02-03_14h11.15.662,contrast_sensitivity,2024.2.4,None,2025-02-03 14h11.22.738845 -0500,
1e-06,1,16,179,39,2,left,0.27300400007516146,None,2,39,179,57,173.5119434579974,,,,173.50423283304553,174.10074333299417,174.38121700007468,left,0.27300400007516146,None,demo,001,2025-02-03_14h11.15.662,contrast_sensitivity,2024.2.4,None,2025-02-03 14h11.22.738845 -0500,
1.0,1,4,180,40,2,right,0.2455323749454692,None,2,40,180,34,174.39021149999462,,,,174.3833830410149,174.97918537503574,175.23157045803964,right,0.2455323749454692,None,demo,001,2025-02-03_14h11.15.662,contrast_sensitivity,2024.2.4,None,2025-02-03 14h11.22.738845 -0500,
0.001,-1,1,181,41,2,right,0.3063615409191698,None,2,41,181,10,175.2407613330288,,,,175.2339590829797,175.82917066605296,176.13925029104576,right,0.3063615409191698,None,demo,001,2025-02-03_14h11.15.662,contrast_sensitivity,2024.2.4,None,2025-02-03 14h11.22.738845 -0500,
1.0,1,1,182,42,2,right,0.2675348329357803,None,2,42,182,6,176.1453123750398,,,,176.14056175004225,176.7459414160112,177.0168310829904,right,0.2675348329357803,None,demo,001,2025-02-03_14h11.15.662,contrast_sensitivity,2024.2.4,None,2025-02-03 14h11.22.738845 -0500,
1.0,-1,16,183,43,2,left,0.3112157079158351,None,2,43,183,69,177.0280433750013,,,,177.01818016602192,177.6122797910357,177.93177745805588,left,0.3112157079158351,None,demo,001,2025-02-03_14h11.15.662,contrast_sensitivity,2024.2.4,None,2025-02-03 14h11.22.738845 -0500,
0.001,1,8,184,44,2,left,0.28054937499109656,None,2,44,184,45,177.94050983304624,,,,177.9342085000826,178.52809045801405,178.81465050007682,left,0.28054937499109656,None,demo,001,2025-02-03_14h11.15.662,contrast_sensitivity,2024.2.4,None,2025-02-03 14h11.22.738845 -0500,
0.01,-1,2,185,45,2,right,0.34709225001279265,None,2,45,185,25,178.82266000006348,,,,178.81656762503553,179.41234920802526,179.7634760410292,right,0.34709225001279265,None,demo,001,2025-02-03_14h11.15.662,contrast_sensitivity,2024.2.4,None,2025-02-03 14h11.22.738845 -0500,
1.0,1,16,186,46,2,right,0.28691520798020065,None,2,46,186,62,179.76925883302465,,,,179.76517437503207,180.36152262508404,180.65107487502974,right,0.28691520798020065,None,demo,001,2025-02-03_14h11.15.662,contrast_sensitivity,2024.2.4,None,2025-02-03 14h11.22.738845 -0500,
0.0001,1,2,187,47,2,right,0.2221466249320656,None,2,47,187,16,180.66175320802722,,,,180.65333612507675,181.2503726250725,181.4810240829829,right,0.2221466249320656,None,demo,001,2025-02-03_14h11.15.662,contrast_sensitivity,2024.2.4,None,2025-02-03 14h11.22.738845 -0500,
1e-06,1,4,188,48,2,right,0.28950033290311694,None,2,48,188,29,181.48937691608444,,,,181.48356900003273,182.07891425001435,182.38189850002527,right,0.28950033290311694,None,demo,001,2025-02-03_14h11.15.662,contrast_sensitivity,2024.2.4,None,2025-02-03 14h11.22.738845 -0500,
1e-06,-1,8,189,49,2,left,0.42532199900597334,None,2,49,189,50,182.38933654106222,,,,182.38402233307716,182.99611000006553,183.42966975003947,left,0.42532199900597334,None,demo,001,2025-02-03_14h11.15.662,contrast_sensitivity,2024.2.4,None,2025-02-03 14h11.22.738845 -0500,
1e-08,1,2,190,50,2,left,0.4027240830473602,None,2,50,190,14,183.4354112080764,,,,183.4310152910184,184.029600125039,184.43435687501915,left,0.4027240830473602,None,demo,001,2025-02-03_14h11.15.662,contrast_sensitivity,2024.2.4,None,2025-02-03 14h11.22.738845 -0500,
1.0,1,8,191,51,2,right,0.25180991599336267,None,2,51,191,48,184.4455250829924,,,,184.43645675003063,185.04651941603515,185.31550279108342,right,0.25180991599336267,None,demo,001,2025-02-03_14h11.15.662,contrast_sensitivity,2024.2.4,None,2025-02-03 14h11.22.738845 -0500,
0.01,-1,1,192,52,2,right,0.404894249048084,None,2,52,192,11,185.32914508297108,,,,185.31778058304917,185.91237170808017,186.3313544159755,right,0.404894249048084,None,demo,001,2025-02-03_14h11.15.662,contrast_sensitivity,2024.2.4,None,2025-02-03 14h11.22.738845 -0500,
0.01,1,2,193,53,2,left,0.31619733304250985,None,2,53,193,18,186.34015462500975,,,,186.33379437506665,186.92905879102182,187.24817420798354,left,0.31619733304250985,None,demo,001,2025-02-03_14h11.15.662,contrast_sensitivity,2024.2.4,None,2025-02-03 14h11.22.738845 -0500,
0.001,1,16,194,54,2,right,0.5002982079749927,None,2,54,194,59,187.2567701250082,,,,187.25043900008313,187.84492445806973,188.3519151250366,right,0.5002982079749927,None,demo,001,2025-02-03_14h11.15.662,contrast_sensitivity,2024.2.4,None,2025-02-03 14h11.22.738845 -0500,
0.1,-1,1,195,55,2,left,0.39423787500709295,None,2,55,195,12,188.36119108297862,,,,188.3532709160354,188.95003295806237,189.3478785409825,left,0.39423787500709295,None,demo,001,2025-02-03_14h11.15.662,contrast_sensitivity,2024.2.4,None,2025-02-03 14h11.22.738845 -0500,
0.001,-1,8,196,56,2,left,0.44742570794187486,None,2,56,196,52,189.35647958307527,,,,189.35025504103396,189.94576654105913,190.3977792080259,left,0.44742570794187486,None,demo,001,2025-02-03_14h11.15.662,contrast_sensitivity,2024.2.4,None,2025-02-03 14h11.22.738845 -0500,
0.0001,-1,16,197,57,2,left,0.505387083045207,None,2,57,197,65,190.41227412503213,,,,190.40021183306817,190.9957467080094,191.51408604101744,left,0.505387083045207,None,demo,001,2025-02-03_14h11.15.662,contrast_sensitivity,2024.2.4,None,2025-02-03 14h11.22.738845 -0500,
0.0001,-1,2,198,58,2,left,0.4749369160272181,None,2,58,198,23,191.520087541081,,,,191.5156392910285,192.1123252500547,192.59829145797994,left,0.4749369160272181,None,demo,001,2025-02-03_14h11.15.662,contrast_sensitivity,2024.2.4,None,2025-02-03 14h11.22.738845 -0500,
1e-08,1,8,199,59,2,left,0.5439933739835396,None,2,59,199,42,192.60657075000927,,,,192.6006860830821,193.19526987499557,193.74814133299515,left,0.5439933739835396,None,demo,001,2025-02-03_14h11.15.662,contrast_sensitivity,2024.2.4,None,2025-02-03 14h11.22.738845 -0500,
1e-06,1,1,200,60,2,right,0.4563197500538081,None,2,60,200,1,193.7566751660779,,,,193.750599791063,194.3458051250782,194.81438212504145,right,0.4563197500538081,None,demo,001,2025-02-03_14h11.15.662,contrast_sensitivity,2024.2.4,None,2025-02-03 14h11.22.738845 -0500,
0.0001,1,8,201,61,2,right,0.39350033295340836,None,2,61,201,44,194.829365957994,,,,194.81634075008333,195.41253704100382,195.81261479097884,right,0.39350033295340836,None,demo,001,2025-02-03_14h11.15.662,contrast_sensitivity,2024.2.4,None,2025-02-03 14h11.22.738845 -0500,
0.1,1,4,202,62,2,right,0.3827532500727102,None,2,62,202,33,195.81840858305804,,,,195.81390737497713,196.41130387503654,196.79747462505475,right,0.3827532500727102,None,demo,001,2025-02-03_14h11.15.662,contrast_sensitivity,2024.2.4,None,2025-02-03 14h11.22.738845 -0500,
0.01,1,16,203,63,2,left,0.5774667909136042,None,2,63,203,60,196.80392795801163,,,,196.7993285410339,197.39553258300293,197.9803836659994,left,0.5774667909136042,None,demo,001,2025-02-03_14h11.15.662,contrast_sensitivity,2024.2.4,None,2025-02-03 14h11.22.738845 -0500,
0.1,-1,16,204,64,2,left,0.33826841600239277,None,2,64,204,68,197.98669979104307,,,,197.9820555410115,198.5797802080633,198.932453458081,left,0.33826841600239277,None,demo,001,2025-02-03_14h11.15.662,contrast_sensitivity,2024.2.4,None,2025-02-03 14h11.22.738845 -0500,
0.01,1,1,205,65,2,left,0.2974161660531536,None,2,65,205,4,198.94072029099334,,,,198.93458400003146,199.5290733750444,199.8314800830558,left,0.2974161660531536,None,demo,001,2025-02-03_14h11.15.662,contrast_sensitivity,2024.2.4,None,2025-02-03 14h11.22.738845 -0500,
0.01,1,4,206,66,2,right,0.3410914170090109,None,2,66,206,32,199.8455111660296,,,,199.83375600003637,200.42884704098105,200.7715724160662,right,0.3410914170090109,None,demo,001,2025-02-03_14h11.15.662,contrast_sensitivity,2024.2.4,None,2025-02-03 14h11.22.738845 -0500,
0.0001,-1,1,207,67,2,right,0.4848547079600394,None,2,67,207,9,200.77765200007707,,,,200.77312683302443,201.3801522080321,201.86959133297205,right,0.4848547079600394,None,demo,001,2025-02-03_14h11.15.662,contrast_sensitivity,2024.2.4,None,2025-02-03 14h11.22.738845 -0500,
1e-06,-1,16,208,68,2,left,0.46663187397643924,None,2,68,208,64,201.87875933304895,,,,201.8709133330267,202.46225550002418,202.93166175007354,left,0.46663187397643924,None,demo,001,2025-02-03_14h11.15.662,contrast_sensitivity,2024.2.4,None,2025-02-03 14h11.22.738845 -0500,
0.1,-1,8,209,69,2,left,0.3762407499598339,None,2,69,209,54,202.94038008304778,,,,202.9339802080067,203.54565650003497,203.92978362506256,left,0.3762407499598339,None,demo,001,2025-02-03_14h11.15.662,contrast_sensitivity,2024.2.4,None,2025-02-03 14h11.22.738845 -0500,
1.0,-1,8,210,0,3,left,0.37459900008980185,None,3,0,210,55,203.93551416601986,,,,203.93137474998366,204.52821470797062,204.91287250001915,left,0.37459900008980185,None,demo,001,2025-02-03_14h11.15.662,contrast_sensitivity,2024.2.4,None,2025-02-03 14h11.22.738845 -0500,
0.001,-1,8,211,1,3,left,0.2810620830859989,None,3,1,211,52,204.91885379108135,,,,204.9143207500456,205.4998098750366,205.78571316599846,left,0.2810620830859989,None,demo,001,2025-02-03_14h11.15.662,contrast_sensitivity,2024.2.4,None,2025-02-03 14h11.22.738845 -0500,
0.0001,-1,1,212,2,3,left,0.5551365409046412,None,3,2,212,9,205.79434783302713,,,,205.78766274999361,206.37867641600315,206.93956591608003,left,0.5551365409046412,None,demo,001,2025-02-03_14h11.15.662,contrast_sensitivity,2024.2.4,None,2025-02-03 14h11.22.738845 -0500,
1e-08,1,1,213,3,3,left,0.5324823750415817,None,3,3,213,0,206.96214220800903,,,,206.94089391606394,207.54631700005848,208.0834206660511,left,0.5324823750415817,None,demo,001,2025-02-03_14h11.15.662,contrast_sensitivity,2024.2.4,None,2025-02-03 14h11.22.738845 -0500,
0.01,-1,8,214,4,3,left,0.4176725830184296,None,3,4,214,53,208.09540045808535,,,,208.08470658306032,208.67909512505867,209.1012251250213,left,0.4176725830184296,None,demo,001,2025-02-03_14h11.15.662,contrast_sensitivity,2024.2.4,None,2025-02-03 14h11.22.738845 -0500,
1.0,1,4,215,5,3,right,0.4068374579073861,None,3,5,215,34,209.1120580410352,,,,209.10367379104719,209.69994099996984,210.11399312503636,right,0.4068374579073861,None,demo,001,2025-02-03_14h11.15.662,contrast_sensitivity,2024.2.4,None,2025-02-03 14h11.22.738845 -0500,
0.1,-1,8,216,6,3,left,0.38911900005768985,None,3,6,216,54,210.12325575004797,,,,210.1164520829916,210.72959029104095,211.13115375000052,left,0.38911900005768985,None,demo,001,2025-02-03_14h11.15.662,contrast_sensitivity,2024.2.4,None,2025-02-03 14h11.22.738845 -0500,
1e-06,1,16,217,7,3,left,0.42122595803812146,None,3,7,217,57,211.14538895804435,,,,211.13304283306934,211.750412666006,212.1794376660837,left,0.42122595803812146,None,demo,001,2025-02-03_14h11.15.662,contrast_sensitivity,2024.2.4,None,2025-02-03 14h11.22.738845 -0500,
0.1,-1,1,218,8,3,left,0.2773742489516735,None,3,8,218,12,212.1853333329782,,,,212.18067516607698,212.7662634580629,213.0461165830493,left,0.2773742489516735,None,demo,001,2025-02-03_14h11.15.662,contrast_sensitivity,2024.2.4,None,2025-02-03 14h11.22.738845 -0500,
0.0001,-1,16,219,9,3,left,0.3495680829510093,None,3,9,219,65,213.05111133307219,,,,213.0473480829969,213.6360672910232,213.99816795799416,left,0.3495680829510093,None,demo,001,2025-02-03_14h11.15.662,contrast_sensitivity,2024.2.4,None,2025-02-03 14h11.22.738845 -0500,
0.1,-1,16,220,10,3,left,0.44448654202278703,None,3,10,220,68,214.0124887500424,,,,214.0002289999975,214.5952842499828,215.0479250830831,left,0.44448654202278703,None,demo,001,2025-02-03_14h11.15.662,contrast_sensitivity,2024.2.4,None,2025-02-03 14h11.22.738845 -0500,
1e-06,1,4,221,11,3,left,0.3398104999214411,None,3,11,221,29,215.05680183297954,,,,215.05021229106933,215.64570025005378,215.99820591602474,left,0.3398104999214411,None,demo,001,2025-02-03_14h11.15.662,contrast_sensitivity,2024.2.4,None,2025-02-03 14h11.22.738845 -0500,
0.1,1,8,222,12,3,right,0.5350212919292971,None,3,12,222,47,216.0068332500523,,,,216.0005978330737,216.5955534579698,217.13498095807154,right,0.5350212919292971,None,demo,001,2025-02-03_14h11.15.662,contrast_sensitivity,2024.2.4,None,2025-02-03 14h11.22.738845 -0500,
0.001,-1,4,223,13,3,left,0.3305824580602348,None,3,13,223,38,217.14526174997445,,,,217.13739208306652,217.7339786250377,218.06890745798592,left,0.3305824580602348,None,demo,001,2025-02-03_14h11.15.662,contrast_sensitivity,2024.2.4,None,2025-02-03 14h11.22.738845 -0500,
1e-08,1,8,224,14,3,left,0.37578012503217906,None,3,14,224,42,218.07868595805485,,,,218.0709567500744,218.66678241605405,219.0481850830838,left,0.37578012503217906,None,demo,001,2025-02-03_14h11.15.662,contrast_sensitivity,2024.2.4,None,2025-02-03 14h11.22.738845 -0500,
0.1,1,2,225,15,3,right,0.3384244160261005,None,3,15,225,19,219.06222295807675,,,,219.05039420805406,219.64605879108422,219.9968613750534,right,0.3384244160261005,None,demo,001,2025-02-03_14h11.15.662,contrast_sensitivity,2024.2.4,None,2025-02-03 14h11.22.738845 -0500,
1e-06,-1,4,226,16,3,right,0.3314982079900801,None,3,16,226,36,220.00339304096997,,,,219.99872104101814,220.59495166607667,220.9300282499753,right,0.3314982079900801,None,demo,001,2025-02-03_14h11.15.662,contrast_sensitivity,2024.2.4,None,2025-02-03 14h11.22.738845 -0500,
0.0001,1,16,227,17,3,right,0.6285367080708966,None,3,17,227,58,220.9378078330774,,,,220.93174041598104,221.52889087505173,222.16429895802867,right,0.6285367080708966,None,demo,001,2025-02-03_14h11.15.662,contrast_sensitivity,2024.2.4,None,2025-02-03 14h11.22.738845 -0500,
0.0001,1,1,228,18,3,left,0.7467074580490589,None,3,18,228,2,222.17930591607,,,,222.16629020799883,222.7626861250028,223.5143023750279,left,0.7467074580490589,None,demo,001,2025-02-03_14h11.15.662,contrast_sensitivity,2024.2.4,None,2025-02-03 14h11.22.738845 -0500,
1e-06,-1,8,229,19,3,left,0.40161045792046934,None,3,19,229,50,223.52298304100987,,,,223.51625312503893,224.11206591606606,224.51884312496986,left,0.40161045792046934,None,demo,001,2025-02-03_14h11.15.662,contrast_sensitivity,2024.2.4,None,2025-02-03 14h11.22.738845 -0500,
0.01,-1,1,230,20,3,left,0.37276316608767956,None,3,20,230,11,224.52833925001323,,,,224.521007708041,225.11679445800837,225.49768041598145,left,0.37276316608767956,None,demo,001,2025-02-03_14h11.15.662,contrast_sensitivity,2024.2.4,None,2025-02-03 14h11.22.738845 -0500,
0.1,-1,4,231,21,3,left,0.28452095796819776,None,3,21,231,40,225.50613270804752,,,,225.49999020807445,226.09576766600367,226.38496066606604,left,0.28452095796819776,None,demo,001,2025-02-03_14h11.15.662,contrast_sensitivity,2024.2.4,None,2025-02-03 14h11.22.738845 -0500,
1.0,-1,2,232,22,3,left,0.28193433303385973,None,3,22,232,27,226.39538524998352,,,,226.38711145799607,226.983414416085,227.26868112501688,left,0.28193433303385973,None,demo,001,2025-02-03_14h11.15.662,contrast_sensitivity,2024.2.4,None,2025-02-03 14h11.22.738845 -0500,
0.01,-1,4,233,23,3,left,0.4744192489888519,None,3,23,233,39,227.277564750053,,,,227.27109220798593,227.86686741607264,228.3462535829749,left,0.4744192489888519,None,demo,001,2025-02-03_14h11.15.662,contrast_sensitivity,2024.2.4,None,2025-02-03 14h11.22.738845 -0500,
1.0,1,8,234,24,3,right,0.4354236250510439,None,3,24,234,48,228.3516046659788,,,,228.34780145797413,228.94481183297466,229.3983550410485,right,0.4354236250510439,None,demo,001,2025-02-03_14h11.15.662,contrast_sensitivity,2024.2.4,None,2025-02-03 14h11.22.738845 -0500,
1e-08,-1,4,235,25,3,right,0.3187756659463048,None,3,25,235,35,229.41214404103812,,,,229.4004095409764,229.99556654097978,230.31850004103035,right,0.3187756659463048,None,demo,001,2025-02-03_14h11.15.662,contrast_sensitivity,2024.2.4,None,2025-02-03 14h11.22.738845 -0500,
1.0,1,2,236,26,3,right,0.41194808308500797,None,3,26,236,20,230.3277138749836,,,,230.32057812507264,230.91632458299864,231.3317093750229,right,0.41194808308500797,None,demo,001,2025-02-03_14h11.15.662,contrast_sensitivity,2024.2.4,None,2025-02-03 14h11.22.738845 -0500,
0.01,-1,16,237,27,3,left,0.33627954206895083,None,3,27,237,67,231.33973170805257,,,,231.3338037499925,231.92890170798637,232.26801895804238,left,0.33627954206895083,None,demo,001,2025-02-03_14h11.15.662,contrast_sensitivity,2024.2.4,None,2025-02-03 14h11.22.738845 -0500,
1e-06,-1,1,238,28,3,left,0.31085737398825586,None,3,28,238,8,232.27860262501054,,,,232.27048070798628,232.86238516599406,233.1815078330692,left,0.31085737398825586,None,demo,001,2025-02-03_14h11.15.662,contrast_sensitivity,2024.2.4,None,2025-02-03 14h11.22.738845 -0500,
0.001,1,2,239,29,3,left,0.43519562494475394,None,3,29,239,17,233.1898234160617,,,,233.18360550003126,233.77891366602853,234.2176936659962,left,0.43519562494475394,None,demo,001,2025-02-03_14h11.15.662,contrast_sensitivity,2024.2.4,None,2025-02-03 14h11.22.738845 -0500,
0.1,-1,2,240,30,3,left,0.4526132909813896,None,3,30,240,26,234.22852758306544,,,,234.21998133300804,234.8124819160439,235.26796229102183,left,0.4526132909813896,None,demo,001,2025-02-03_14h11.15.662,contrast_sensitivity,2024.2.4,None,2025-02-03 14h11.22.738845 -0500,
1.0,1,1,241,31,3,right,0.4692924580303952,None,3,31,241,6,235.2786663749721,,,,235.27029408304952,235.86681470798794,236.3464187500067,right,0.4692924580303952,None,demo,001,2025-02-03_14h11.15.662,contrast_sensitivity,2024.2.4,None,2025-02-03 14h11.22.738845 -0500,
1e-08,1,16,242,32,3,right,0.39927491592243314,None,3,32,242,56,236.3521098330384,,,,236.34802304103505,236.94477366597857,237.34629158303142,right,0.39927491592243314,None,demo,001,2025-02-03_14h11.15.662,contrast_sensitivity,2024.2.4,None,2025-02-03 14h11.22.738845 -0500,
1e-06,1,8,243,33,3,left,0.3835339160868898,None,3,33,243,43,237.35389020806178,,,,237.3479413749883,237.93351112504024,238.33111708296929,left,0.3835339160868898,None,demo,001,2025-02-03_14h11.15.662,contrast_sensitivity,2024.2.4,None,2025-02-03 14h11.22.738845 -0500,
0.01,-1,2,244,34,3,left,0.5020737079903483,None,3,34,244,25,238.33825550007168,,,,238.3334724160377,238.92896183300763,239.44783870805986,left,0.5020737079903483,None,demo,001,2025-02-03_14h11.15.662,contrast_sensitivity,2024.2.4,None,2025-02-03 14h11.22.738845 -0500,
0.1,1,1,245,35,3,right,0.3272093740524724,None,3,35,245,5,239.4555913329823,,,,239.4502492500469,240.04577845800668,240.3807902080007,right,0.3272093740524724,None,demo,001,2025-02-03_14h11.15.662,contrast_sensitivity,2024.2.4,None,2025-02-03 14h11.22.738845 -0500,
0.0001,-1,4,246,36,3,left,0.33962995803449303,None,3,36,246,37,240.38946379104163,,,,240.38277395803016,240.97935012506787,241.33066829107702,left,0.33962995803449303,None,demo,001,2025-02-03_14h11.15.662,contrast_sensitivity,2024.2.4,None,2025-02-03 14h11.22.738845 -0500,
0.0001,1,4,247,37,3,left,0.34901562496088445,None,3,37,247,30,241.33912775001954,,,,241.3327942910837,241.9289975410793,242.28151620808057,left,0.34901562496088445,None,demo,001,2025-02-03_14h11.15.662,contrast_sensitivity,2024.2.4,None,2025-02-03 14h11.22.738845 -0500,
1e-08,1,2,248,38,3,left,0.35201429098378867,None,3,38,248,14,242.28951462497935,,,,242.2838551250752,242.89589608297683,243.25033341604285,left,0.35201429098378867,None,demo,001,2025-02-03_14h11.15.662,contrast_sensitivity,2024.2.4,None,2025-02-03 14h11.22.738845 -0500,
0.001,-1,1,249,39,3,left,0.36938462406396866,None,3,39,249,10,243.26205450005364,,,,243.25254383299034,243.84550387505442,244.2183163750451,left,0.36938462406396866,None,demo,001,2025-02-03_14h11.15.662,contrast_sensitivity,2024.2.4,None,2025-02-03 14h11.22.738845 -0500,
1e-08,-1,16,250,40,3,left,0.41586949897464365,None,3,40,250,63,244.22868841607124,,,,244.21979320805985,244.8150347910123,245.23313187505119,left,0.41586949897464365,None,demo,001,2025-02-03_14h11.15.662,contrast_sensitivity,2024.2.4,None,2025-02-03 14h11.22.738845 -0500,
0.001,-1,2,251,41,3,left,0.5780459999805316,None,3,41,251,24,245.24462424998637,,,,245.23512937501073,245.82891458307859,246.41484595800284,left,0.5780459999805316,None,demo,001,2025-02-03_14h11.15.662,contrast_sensitivity,2024.2.4,None,2025-02-03 14h11.22.738845 -0500,
0.001,1,4,252,42,3,left,0.41950112499762326,None,3,42,252,31,246.4228012500098,,,,246.41710225003771,247.0123425410129,247.4485708749853,left,0.41950112499762326,None,demo,001,2025-02-03_14h11.15.662,contrast_sensitivity,2024.2.4,None,2025-02-03 14h11.22.738845 -0500,
0.001,1,8,253,43,3,left,0.5229078750126064,None,3,43,253,45,247.46246562502347,,,,247.45070333301555,248.0489265830256,248.58104158297647,left,0.5229078750126064,None,demo,001,2025-02-03_14h11.15.662,contrast_sensitivity,2024.2.4,None,2025-02-03 14h11.22.738845 -0500,
0.001,1,16,254,44,3,right,0.4458601250080392,None,3,44,254,59,248.58979787502903,,,,248.5828946250258,249.17891862499528,249.629533624975,right,0.4458601250080392,None,demo,001,2025-02-03_14h11.15.662,contrast_sensitivity,2024.2.4,None,2025-02-03 14h11.22.738845 -0500,
1e-06,-1,16,255,45,3,left,0.46192920801695436,None,3,45,255,64,249.63600066606887,,,,249.63117725006305,250.21687345800456,250.68178987503052,left,0.46192920801695436,None,demo,001,2025-02-03_14h11.15.662,contrast_sensitivity,2024.2.4,None,2025-02-03 14h11.22.738845 -0500,
0.001,-1,16,256,46,3,left,0.48180887498892844,None,3,46,256,66,250.6953780830372,,,,250.68388720799703,251.2959224160295,251.78148354100995,left,0.48180887498892844,None,demo,001,2025-02-03_14h11.15.662,contrast_sensitivity,2024.2.4,None,2025-02-03 14h11.22.738845 -0500,
1e-06,1,1,257,47,3,left,0.3223359580151737,None,3,47,257,1,251.7888001250103,,,,251.78404050006066,252.37933799996972,252.7127269579796,left,0.3223359580151737,None,demo,001,2025-02-03_14h11.15.662,contrast_sensitivity,2024.2.4,None,2025-02-03 14h11.22.738845 -0500,
0.01,1,2,258,48,3,left,0.43499058298766613,None,3,48,258,18,252.71853412501514,,,,252.71395416604355,253.298675750033,253.74742350005545,left,0.43499058298766613,None,demo,001,2025-02-03_14h11.15.662,contrast_sensitivity,2024.2.4,None,2025-02-03 14h11.22.738845 -0500,
0.1,1,4,259,49,3,right,0.37254824896808714,None,3,49,259,33,253.7558407500619,,,,253.749557916075,254.34610054106452,254.730910415994,right,0.37254824896808714,None,demo,001,2025-02-03_14h11.15.662,contrast_sensitivity,2024.2.4,None,2025-02-03 14h11.22.738845 -0500,
0.0001,-1,2,260,50,3,right,0.22415833303239197,None,3,50,260,23,254.73974279104732,,,,254.73333249997813,255.3284358329838,255.56485058297403,right,0.22415833303239197,None,demo,001,2025-02-03_14h11.15.662,contrast_sensitivity,2024.2.4,None,2025-02-03 14h11.22.738845 -0500,
1.0,1,16,261,51,3,right,0.1169882919639349,None,3,51,261,62,255.57383450004272,,,,255.56710291607305,256.16260508308187,256.2846532909898,right,0.1169882919639349,None,demo,001,2025-02-03_14h11.15.662,contrast_sensitivity,2024.2.4,None,2025-02-03 14h11.22.738845 -0500,
0.01,1,4,262,52,3,right,0.570640082936734,None,3,52,262,32,256.2952750000404,,,,256.2869775000727,256.8839873750694,257.46487025008537,right,0.570640082936734,None,demo,001,2025-02-03_14h11.15.662,contrast_sensitivity,2024.2.4,None,2025-02-03 14h11.22.738845 -0500,
0.1,1,16,263,53,3,right,0.4363030409440398,None,3,53,263,61,257.47346395801287,,,,257.4673043329967,258.0622317499947,258.51416145800613,right,0.4363030409440398,None,demo,001,2025-02-03_14h11.15.662,contrast_sensitivity,2024.2.4,None,2025-02-03 14h11.22.738845 -0500,
1e-06,1,2,264,54,3,left,0.36531070806086063,None,3,54,264,15,258.5226222500205,,,,258.5165612499695,259.1122347500641,259.4824125410523,left,0.36531070806086063,None,demo,001,2025-02-03_14h11.15.662,contrast_sensitivity,2024.2.4,None,2025-02-03 14h11.22.738845 -0500,
0.0001,-1,8,265,55,3,left,0.4353768330765888,None,3,55,265,51,259.49002887506504,,,,259.4846463750582,260.0791122909868,260.517300541047,left,0.4353768330765888,None,demo,001,2025-02-03_14h11.15.662,contrast_sensitivity,2024.2.4,None,2025-02-03 14h11.22.738845 -0500,
1e-08,-1,2,266,56,3,left,0.44337362505029887,None,3,56,266,21,260.52884062507655,,,,260.51941670803353,261.1151374580804,261.56277337507345,left,0.44337362505029887,None,demo,001,2025-02-03_14h11.15.662,contrast_sensitivity,2024.2.4,None,2025-02-03 14h11.22.738845 -0500,
1.0,-1,1,267,57,3,left,0.37405829096678644,None,3,57,267,13,261.56876241602004,,,,261.5643277079798,262.1506174580427,262.5306101250462,left,0.37405829096678644,None,demo,001,2025-02-03_14h11.15.662,contrast_sensitivity,2024.2.4,None,2025-02-03 14h11.22.738845 -0500,
1e-08,-1,8,268,58,3,left,0.29222012404352427,None,3,58,268,49,262.5385338329943,,,,262.53264508303255,263.12921350006945,263.43079870799556,left,0.29222012404352427,None,demo,001,2025-02-03_14h11.15.662,contrast_sensitivity,2024.2.4,None,2025-02-03 14h11.22.738845 -0500,
0.01,1,16,269,59,3,left,0.17821458308026195,None,3,59,269,60,263.4460217910819,,,,263.4326167079853,264.02922637504525,264.21418624999933,left,0.17821458308026195,None,demo,001,2025-02-03_14h11.15.662,contrast_sensitivity,2024.2.4,None,2025-02-03 14h11.22.738845 -0500,
0.0001,1,2,270,60,3,right,0.4472122909501195,None,3,60,270,16,264.2224395830417,,,,264.21626179106534,264.8122350410558,265.26441429101396,right,0.4472122909501195,None,demo,001,2025-02-03_14h11.15.662,contrast_sensitivity,2024.2.4,None,2025-02-03 14h11.22.738845 -0500,
0.001,1,1,271,61,3,right,0.4071512490045279,None,3,61,271,3,265.2726009580074,,,,265.26672287506517,265.8622030830011,266.2718457080191,right,0.4071512490045279,None,demo,001,2025-02-03_14h11.15.662,contrast_sensitivity,2024.2.4,None,2025-02-03 14h11.22.738845 -0500,
0.0001,1,8,272,62,3,right,0.3949323749402538,None,3,62,272,44,266.2866119160317,,,,266.27379987505265,266.86646062508225,267.2649402500829,right,0.3949323749402538,None,demo,001,2025-02-03_14h11.15.662,contrast_sensitivity,2024.2.4,None,2025-02-03 14h11.22.738845 -0500,
0.01,1,8,273,63,3,right,0.4368884990690276,None,3,63,273,46,267.27360333304387,,,,267.26704862504266,267.8624200409977,268.3013396250317,right,0.4368884990690276,None,demo,001,2025-02-03_14h11.15.662,contrast_sensitivity,2024.2.4,None,2025-02-03 14h11.22.738845 -0500,
1.0,-1,4,274,64,3,left,0.4779890419449657,None,3,64,274,41,268.3118221249897,,,,268.30380008299835,268.898292916012,269.3793612080626,left,0.4779890419449657,None,demo,001,2025-02-03_14h11.15.662,contrast_sensitivity,2024.2.4,None,2025-02-03 14h11.22.738845 -0500,
1e-08,1,4,275,65,3,left,0.42714187502861023,None,3,65,275,28,269.38514662499074,,,,269.38073645799886,269.9671528330073,270.39799020800274,left,0.42714187502861023,None,demo,001,2025-02-03_14h11.15.662,contrast_sensitivity,2024.2.4,None,2025-02-03 14h11.22.738845 -0500,
1e-06,-1,2,276,66,3,left,0.5715775830904022,None,3,66,276,22,270.40719300007913,,,,270.4004602499772,270.99563658307306,271.5818958330201,left,0.5715775830904022,None,demo,001,2025-02-03_14h11.15.662,contrast_sensitivity,2024.2.4,None,2025-02-03 14h11.22.738845 -0500,
1.0,-1,16,277,67,3,left,0.4710858330363408,None,3,67,277,69,271.59124387498014,,,,271.58439229102805,272.1790957499761,272.6643382910406,left,0.4710858330363408,None,demo,001,2025-02-03_14h11.15.662,contrast_sensitivity,2024.2.4,None,2025-02-03 14h11.22.738845 -0500,
1e-08,-1,1,278,68,3,left,0.44301837496459484,None,3,68,278,7,272.6737002080772,,,,272.6672272500582,273.27935533307027,273.73086116602644,left,0.44301837496459484,None,demo,001,2025-02-03_14h11.15.662,contrast_sensitivity,2024.2.4,None,2025-02-03 14h11.22.738845 -0500,
0.01,1,1,279,69,3,right,0.44539787503890693,None,3,69,279,4,273.74001254106406,,,,273.7333773750579,274.328903958085,274.78159837506246,right,0.44539787503890693,None,demo,001,2025-02-03_14h11.15.662,contrast_sensitivity,2024.2.4,None,2025-02-03 14h11.22.738845 -0500,
0.01,1,16,280,0,4,right,0.5673372079618275,None,4,0,280,60,274.78952629107516,,,,274.78393754106946,275.37880425003823,275.95190937502775,right,0.5673372079618275,None,demo,001,2025-02-03_14h11.15.662,contrast_sensitivity,2024.2.4,None,2025-02-03 14h11.22.738845 -0500,
1e-08,1,8,281,1,4,left,0.5315420830156654,None,4,1,281,42,275.9618067910196,,,,275.9542727910448,276.54857145796996,277.0826036250219,left,0.5315420830156654,None,demo,001,2025-02-03_14h11.15.662,contrast_sensitivity,2024.2.4,None,2025-02-03 14h11.22.738845 -0500,
1.0,-1,16,282,2,4,left,0.38433074892964214,None,4,2,282,69,277.09451191604603,,,,277.08398454100825,277.6827577910153,278.07989016606007,left,0.38433074892964214,None,demo,001,2025-02-03_14h11.15.662,contrast_sensitivity,2024.2.4,None,2025-02-03 14h11.22.738845 -0500,
1.0,-1,8,283,3,4,left,0.30862137500662357,None,4,3,283,55,278.08588154101744,,,,278.08138637500815,278.6794924159767,278.99795783299487,left,0.30862137500662357,None,demo,001,2025-02-03_14h11.15.662,contrast_sensitivity,2024.2.4,None,2025-02-03 14h11.22.738845 -0500,
1e-06,-1,1,284,4,4,left,0.3403657500166446,None,4,4,284,8,279.00650279107504,,,,278.9997560409829,279.5956560410559,279.94760800001677,left,0.3403657500166446,None,demo,001,2025-02-03_14h11.15.662,contrast_sensitivity,2024.2.4,None,2025-02-03 14h11.22.738845 -0500,
0.1,1,8,285,5,4,right,0.3312443749746308,None,4,5,285,47,279.9554693750106,,,,279.94997462502215,280.54680091608316,280.88026970799547,right,0.3312443749746308,None,demo,001,2025-02-03_14h11.15.662,contrast_sensitivity,2024.2.4,None,2025-02-03 14h11.22.738845 -0500,
0.001,1,1,286,6,4,right,0.24041337496601045,None,4,6,286,3,280.8873543749796,,,,280.88179645803757,281.4786624580156,281.73107883299235,right,0.24041337496601045,None,demo,001,2025-02-03_14h11.15.662,contrast_sensitivity,2024.2.4,None,2025-02-03 14h11.22.738845 -0500,
0.0001,-1,2,287,7,4,left,0.37246062501799315,None,4,7,287,23,281.74529920797795,,,,281.732851415989,282.3295012500603,282.71342325001024,left,0.37246062501799315,None,demo,001,2025-02-03_14h11.15.662,contrast_sensitivity,2024.2.4,None,2025-02-03 14h11.22.738845 -0500,
0.01,-1,2,288,8,4,left,0.30356212495826185,None,4,8,288,25,282.72132900008,,,,282.71521633304656,283.3123655000236,283.63134387508035,left,0.30356212495826185,None,demo,001,2025-02-03_14h11.15.662,contrast_sensitivity,2024.2.4,None,2025-02-03 14h11.22.738845 -0500,
1e-08,1,2,289,9,4,left,0.18244012503419071,None,4,9,289,14,283.63938425004017,,,,283.6330062079942,284.2295395829715,284.41482658300083,left,0.18244012503419071,None,demo,001,2025-02-03_14h11.15.662,contrast_sensitivity,2024.2.4,None,2025-02-03 14h11.22.738845 -0500,
0.1,1,1,290,10,4,right,0.3097203749930486,None,4,10,290,5,284.42331770807505,,,,284.4167733329814,285.01118179108016,285.3292419160716,right,0.3097203749930486,None,demo,001,2025-02-03_14h11.15.662,contrast_sensitivity,2024.2.4,None,2025-02-03 14h11.22.738845 -0500,
0.01,1,2,291,11,4,right,0.19894445803947747,None,4,11,291,18,285.3354565000627,,,,285.33071183308493,285.9279430410825,286.1297217500396,right,0.19894445803947747,None,demo,001,2025-02-03_14h11.15.662,contrast_sensitivity,2024.2.4,None,2025-02-03 14h11.22.738845 -0500,
1.0,-1,4,292,12,4,left,0.17927308299113065,None,4,12,292,41,286.1379974579904,,,,286.1313907910371,286.71660375001375,286.9018557079835,left,0.17927308299113065,None,demo,001,2025-02-03_14h11.15.662,contrast_sensitivity,2024.2.4,None,2025-02-03 14h11.22.738845 -0500,
1e-08,-1,8,293,13,4,left,0.34470216603949666,None,4,13,293,49,286.91197120805737,,,,286.90442816598807,287.5002368330024,287.8479919160018,left,0.34470216603949666,None,demo,001,2025-02-03_14h11.15.662,contrast_sensitivity,2024.2.4,None,2025-02-03 14h11.22.738845 -0500,
1e-06,-1,2,294,14,4,left,0.3363562080776319,None,4,14,294,22,287.861598041025,,,,287.8503182079876,288.4625118750846,288.81455216603354,left,0.3363562080776319,None,demo,001,2025-02-03_14h11.15.662,contrast_sensitivity,2024.2.4,None,2025-02-03 14h11.22.738845 -0500,
0.1,-1,1,295,15,4,left,0.10493333300109953,None,4,15,295,12,288.8242006660439,,,,288.817495541065,289.4128576250514,289.53047837503254,left,0.10493333300109953,None,demo,001,2025-02-03_14h11.15.662,contrast_sensitivity,2024.2.4,None,2025-02-03 14h11.22.738845 -0500,
1e-08,1,16,296,16,4,left,0.42157066601794213,None,4,16,296,56,289.5383251250023,,,,289.53237662499305,290.14622187498026,290.58112737501506,left,0.42157066601794213,None,demo,001,2025-02-03_14h11.15.662,contrast_sensitivity,2024.2.4,None,2025-02-03 14h11.22.738845 -0500,
0.1,1,16,297,17,4,right,0.1469876660266891,None,4,17,297,61,290.5956832499942,,,,290.5840154159814,291.19578737497795,291.34792941599153,right,0.1469876660266891,None,demo,001,2025-02-03_14h11.15.662,contrast_sensitivity,2024.2.4,None,2025-02-03 14h11.22.738845 -0500,
1.0,1,2,298,18,4,right,0.24583937495481223,None,4,18,298,20,291.35685541597195,,,,291.3504418330267,291.94494525005575,292.19814170803875,right,0.24583937495481223,None,demo,001,2025-02-03_14h11.15.662,contrast_sensitivity,2024.2.4,None,2025-02-03 14h11.22.738845 -0500,
0.001,-1,1,299,19,4,left,0.2936665000161156,None,4,19,299,10,292.2117537080776,,,,292.19996087497566,292.80001741601154,293.09610154107213,left,0.2936665000161156,None,demo,001,2025-02-03_14h11.15.662,contrast_sensitivity,2024.2.4,None,2025-02-03 14h11.22.738845 -0500,
0.0001,1,4,300,20,4,left,0.5571534580085427,None,4,20,300,30,293.10125333303586,,,,293.0973517500097,293.6945744580589,294.2648871659767,left,0.5571534580085427,None,demo,001,2025-02-03_14h11.15.662,contrast_sensitivity,2024.2.4,None,2025-02-03 14h11.22.738845 -0500,
0.0001,1,8,301,21,4,left,0.43584970803931355,None,4,21,301,44,294.2739544999786,,,,294.26718504098244,294.861872291076,295.30226962501183,left,0.43584970803931355,None,demo,001,2025-02-03_14h11.15.662,contrast_sensitivity,2024.2.4,None,2025-02-03 14h11.22.738845 -0500,
1e-06,-1,8,302,22,4,left,0.4811827080557123,None,4,22,302,50,295.31093612499535,,,,295.30437662499025,295.8985162500758,296.3860227080295,left,0.4811827080557123,None,demo,001,2025-02-03_14h11.15.662,contrast_sensitivity,2024.2.4,None,2025-02-03 14h11.22.738845 -0500,
0.1,-1,4,303,23,4,left,0.3194256250280887,None,4,23,303,40,296.39450695808046,,,,296.3879972080467,296.98320174997207,297.3147027910454,left,0.3194256250280887,None,demo,001,2025-02-03_14h11.15.662,contrast_sensitivity,2024.2.4,None,2025-02-03 14h11.22.738845 -0500,
0.0001,-1,4,304,24,4,left,0.3903880419675261,None,4,24,304,37,297.3226683330722,,,,297.31692995806225,297.91221404098906,298.31471662502736,left,0.3903880419675261,None,demo,001,2025-02-03_14h11.15.662,contrast_sensitivity,2024.2.4,None,2025-02-03 14h11.22.738845 -0500,
0.001,1,4,305,25,4,left,0.500245500006713,None,4,25,305,31,298.3229907080531,,,,298.3171665830305,298.91232958307955,299.4155638330849,left,0.500245500006713,None,demo,001,2025-02-03_14h11.15.662,contrast_sensitivity,2024.2.4,None,2025-02-03 14h11.22.738845 -0500,
1.0,1,16,306,26,4,right,0.22220070799812675,None,4,26,306,62,299.42423508304637,,,,299.41768687497824,300.0123634580523,300.2479158330243,right,0.22220070799812675,None,demo,001,2025-02-03_14h11.15.662,contrast_sensitivity,2024.2.4,None,2025-02-03 14h11.22.738845 -0500,
0.1,1,2,307,27,4,right,0.3369828329887241,None,4,27,307,19,300.25684429099783,,,,300.24985487503,300.84551920800004,301.19633879105095,right,0.3369828329887241,None,demo,001,2025-02-03_14h11.15.662,contrast_sensitivity,2024.2.4,None,2025-02-03 14h11.22.738845 -0500,
1e-06,1,4,308,28,4,right,0.47546725010033697,None,4,28,308,29,301.2018505410524,,,,301.1978627910139,301.7951806250494,302.28122912498657,right,0.47546725010033697,None,demo,001,2025-02-03_14h11.15.662,contrast_sensitivity,2024.2.4,None,2025-02-03 14h11.22.738845 -0500,
0.001,1,2,309,29,4,right,0.26762095803860575,None,4,29,309,17,302.2888458330417,,,,302.28326825005934,302.8788937909994,303.1518487080466,right,0.26762095803860575,None,demo,001,2025-02-03_14h11.15.662,contrast_sensitivity,2024.2.4,None,2025-02-03 14h11.22.738845 -0500,
0.0001,1,1,310,30,4,right,0.3590468739857897,None,4,30,310,2,303.16193270799704,,,,303.1540173330577,303.7505025410792,304.11445283307694,right,0.3590468739857897,None,demo,001,2025-02-03_14h11.15.662,contrast_sensitivity,2024.2.4,None,2025-02-03 14h11.22.738845 -0500,
0.0001,-1,1,311,31,4,left,0.3241177489981055,None,4,31,311,9,304.1227799160406,,,,304.1165619160747,304.71229708299506,305.0479894580785,left,0.3241177489981055,None,demo,001,2025-02-03_14h11.15.662,contrast_sensitivity,2024.2.4,None,2025-02-03 14h11.22.738845 -0500,
0.001,1,16,312,32,4,left,0.4149068749975413,None,4,32,312,59,305.05613870802335,,,,305.0503853330156,305.6455025409814,306.06417270808015,left,0.4149068749975413,None,demo,001,2025-02-03_14h11.15.662,contrast_sensitivity,2024.2.4,None,2025-02-03 14h11.22.738845 -0500,
1.0,-1,1,313,33,4,left,0.4379782489268109,None,4,33,313,13,306.06997625005897,,,,306.06551275006495,306.66753837501165,307.11451570806094,left,0.4379782489268109,None,demo,001,2025-02-03_14h11.15.662,contrast_sensitivity,2024.2.4,None,2025-02-03 14h11.22.738845 -0500,
0.01,-1,8,314,34,4,left,0.41219904099125415,None,4,34,314,53,307.1232942909701,,,,307.1163848330034,307.71218024997506,308.1317743330728,left,0.41219904099125415,None,demo,001,2025-02-03_14h11.15.662,contrast_sensitivity,2024.2.4,None,2025-02-03 14h11.22.738845 -0500,
1e-08,1,4,315,35,4,left,0.5294204580131918,None,4,35,315,28,308.1454137910623,,,,308.1337687909836,308.7288991250098,309.26292545802426,left,0.5294204580131918,None,demo,001,2025-02-03_14h11.15.662,contrast_sensitivity,2024.2.4,None,2025-02-03 14h11.22.738845 -0500,
1.0,1,4,316,36,4,right,0.332015541032888,None,4,36,316,34,309.2688775410643,,,,309.26452612504363,309.8612730000168,310.19625462498516,right,0.332015541032888,None,demo,001,2025-02-03_14h11.15.662,contrast_sensitivity,2024.2.4,None,2025-02-03 14h11.22.738845 -0500,
1.0,1,1,317,37,4,right,0.3443483329610899,None,4,37,317,6,310.20224170805886,,,,310.1977522909874,310.7829687910853,311.13086316606496,right,0.3443483329610899,None,demo,001,2025-02-03_14h11.15.662,contrast_sensitivity,2024.2.4,None,2025-02-03 14h11.22.738845 -0500,
0.01,-1,16,318,38,4,left,0.377513499930501,None,4,38,318,67,311.1392237910768,,,,311.1333140829811,311.72894525004085,312.1144046660047,left,0.377513499930501,None,demo,001,2025-02-03_14h11.15.662,contrast_sensitivity,2024.2.4,None,2025-02-03 14h11.22.738845 -0500,
1e-06,1,2,319,39,4,left,0.41188079095445573,None,4,39,319,15,312.1215563750593,,,,312.1166252500843,312.7124922910007,313.1310532500502,left,0.41188079095445573,None,demo,001,2025-02-03_14h11.15.662,contrast_sensitivity,2024.2.4,None,2025-02-03 14h11.22.738845 -0500,
0.0001,-1,8,320,40,4,right,0.5984792499803007,None,4,40,320,51,313.13922854105476,,,,313.1334335410502,313.72874233301263,314.3308754999889,right,0.5984792499803007,None,demo,001,2025-02-03_14h11.15.662,contrast_sensitivity,2024.2.4,None,2025-02-03 14h11.22.738845 -0500,
1.0,-1,2,321,41,4,left,0.2278393330052495,None,4,41,321,27,314.3386224580463,,,,314.33345804107375,314.92933408298995,315.1641908750171,left,0.2278393330052495,None,demo,001,2025-02-03_14h11.15.662,contrast_sensitivity,2024.2.4,None,2025-02-03 14h11.22.738845 -0500,
1e-06,1,1,322,42,4,left,0.33796199900098145,None,4,42,322,1,315.17242825008,,,,315.1662747079972,315.7621910000453,316.1149074580753,left,0.33796199900098145,None,demo,001,2025-02-03_14h11.15.662,contrast_sensitivity,2024.2.4,None,2025-02-03 14h11.22.738845 -0500,
0.01,-1,4,323,43,4,left,0.41267933300696313,None,4,43,323,39,316.12331883306615,,,,316.11658395803533,316.7126960409805,317.1315641660476,left,0.41267933300696313,None,demo,001,2025-02-03_14h11.15.662,contrast_sensitivity,2024.2.4,None,2025-02-03 14h11.22.738845 -0500,
0.1,-1,8,324,44,4,left,0.36816466704476625,None,4,44,324,54,317.1404941250803,,,,317.13389725005254,317.7279412500793,318.0993424160406,left,0.36816466704476625,None,demo,001,2025-02-03_14h11.15.662,contrast_sensitivity,2024.2.4,None,2025-02-03 14h11.22.738845 -0500,
0.01,1,8,325,45,4,right,0.423531583044678,None,4,45,325,46,318.11117958300747,,,,318.100678750081,318.6955947909737,319.1308033330133,right,0.423531583044678,None,demo,001,2025-02-03_14h11.15.662,contrast_sensitivity,2024.2.4,None,2025-02-03 14h11.22.738845 -0500,
1e-06,-1,16,326,46,4,left,0.45719162398017943,None,4,46,326,64,319.1402400829829,,,,319.13371116598137,319.72889783303253,320.19819775002543,left,0.45719162398017943,None,demo,001,2025-02-03_14h11.15.662,contrast_sensitivity,2024.2.4,None,2025-02-03 14h11.22.738845 -0500,
0.01,1,4,327,47,4,right,0.3846074170432985,None,4,47,327,32,320.2061097500846,,,,320.2005193750374,320.79546783305705,321.1845224580029,right,0.3846074170432985,None,demo,001,2025-02-03_14h11.15.662,contrast_sensitivity,2024.2.4,None,2025-02-03 14h11.22.738845 -0500,
0.0001,1,2,328,48,4,left,0.3052490409463644,None,4,48,328,16,321.19522095797583,,,,321.1864907910349,321.7798068750417,322.09771279105917,left,0.3052490409463644,None,demo,001,2025-02-03_14h11.15.662,contrast_sensitivity,2024.2.4,None,2025-02-03 14h11.22.738845 -0500,
1e-08,-1,16,329,49,4,left,0.4357506250962615,None,4,49,329,63,322.10514145798516,,,,322.0998587500071,322.69558791606687,323.1356732910499,left,0.4357506250962615,None,demo,001,2025-02-03_14h11.15.662,contrast_sensitivity,2024.2.4,None,2025-02-03 14h11.22.738845 -0500,
0.001,-1,2,330,50,4,left,0.43546591605991125,None,4,50,330,24,323.14432558300905,,,,323.13788020797074,323.7345312500838,324.1814234580379,left,0.43546591605991125,None,demo,001,2025-02-03_14h11.15.662,contrast_sensitivity,2024.2.4,None,2025-02-03 14h11.22.738845 -0500,
1e-08,-1,1,331,51,4,left,0.4190989170456305,None,4,51,331,7,324.189712875057,,,,324.18443966598716,324.7788337910315,325.20130549999885,left,0.4190989170456305,None,demo,001,2025-02-03_14h11.15.662,contrast_sensitivity,2024.2.4,None,2025-02-03 14h11.22.738845 -0500,
0.1,1,4,332,52,4,right,0.45100762497168034,None,4,52,332,33,325.2125523330178,,,,325.20262908306904,325.79892333305907,326.26286662498023,right,0.45100762497168034,None,demo,001,2025-02-03_14h11.15.662,contrast_sensitivity,2024.2.4,None,2025-02-03 14h11.22.738845 -0500,
1e-06,-1,4,333,53,4,left,0.3971935419831425,None,4,53,333,36,326.26897666603327,,,,326.26496412500273,326.8507349580759,327.2514288329985,left,0.3971935419831425,None,demo,001,2025-02-03_14h11.15.662,contrast_sensitivity,2024.2.4,None,2025-02-03 14h11.22.738845 -0500,
0.001,1,8,334,54,4,left,0.47433387499768287,None,4,54,334,45,327.2618889580481,,,,327.2539341660449,327.8506874580635,328.33086233306676,left,0.47433387499768287,None,demo,001,2025-02-03_14h11.15.662,contrast_sensitivity,2024.2.4,None,2025-02-03 14h11.22.738845 -0500,
1e-06,1,8,335,55,4,left,0.27063649892807007,None,4,55,335,43,328.3390255830018,,,,328.332964958041,328.9292207909748,329.2182484579971,left,0.27063649892807007,None,demo,001,2025-02-03_14h11.15.662,contrast_sensitivity,2024.2.4,None,2025-02-03 14h11.22.738845 -0500,
0.1,-1,16,336,56,4,left,0.21076004090718925,None,4,56,336,68,329.2287228750065,,,,329.2199851659825,329.81487291597296,330.0316253330093,left,0.21076004090718925,None,demo,001,2025-02-03_14h11.15.662,contrast_sensitivity,2024.2.4,None,2025-02-03 14h11.22.738845 -0500,
0.01,-1,1,337,57,4,left,0.3353212910005823,None,4,57,337,11,330.0453923330642,,,,330.03421412501484,330.62846649996936,330.9657717080554,left,0.3353212910005823,None,demo,001,2025-02-03_14h11.15.662,contrast_sensitivity,2024.2.4,None,2025-02-03 14h11.22.738845 -0500,
1e-06,1,16,338,58,4,right,0.24089504103176296,None,4,58,338,57,330.97797891602386,,,,330.96704954106826,331.5619222910609,331.8054935000837,right,0.24089504103176296,None,demo,001,2025-02-03_14h11.15.662,contrast_sensitivity,2024.2.4,None,2025-02-03 14h11.22.738845 -0500,
0.001,-1,16,339,59,4,left,0.44792649999726564,None,4,59,339,66,331.8298178750556,,,,331.8076372500509,332.4128481660737,332.8650286659831,left,0.44792649999726564,None,demo,001,2025-02-03_14h11.15.662,contrast_sensitivity,2024.2.4,None,2025-02-03 14h11.22.738845 -0500,
0.01,1,1,340,60,4,left,0.4469044159632176,None,4,60,340,4,332.8787081660703,,,,332.86726837500464,333.4668181660818,333.91536979097873,left,0.4469044159632176,None,demo,001,2025-02-03_14h11.15.662,contrast_sensitivity,2024.2.4,None,2025-02-03 14h11.22.738845 -0500,
0.1,-1,2,341,61,4,left,0.5691431669984013,None,4,61,341,26,333.927842291072,,,,333.9165682500461,334.51153650006745,335.09788254101295,left,0.5691431669984013,None,demo,001,2025-02-03_14h11.15.662,contrast_sensitivity,2024.2.4,None,2025-02-03 14h11.22.738845 -0500,
0.001,-1,4,342,62,4,left,0.4187570830108598,None,4,62,342,38,335.11231912497897,,,,335.0998452909989,335.7129457080737,336.13471720798407,left,0.4187570830108598,None,demo,001,2025-02-03_14h11.15.662,contrast_sensitivity,2024.2.4,None,2025-02-03 14h11.22.738845 -0500,
0.0001,1,16,343,63,4,left,1.001926250057295,None,4,63,343,58,336.145264041028,,,,336.1359719580505,336.7337776659988,337.7479068330722,left,1.001926250057295,None,demo,001,2025-02-03_14h11.15.662,contrast_sensitivity,2024.2.4,None,2025-02-03 14h11.22.738845 -0500,
0.001,-1,8,344,64,4,left,0.4151841659331694,None,4,64,344,52,337.7568934999872,,,,337.7501103329705,338.3454560410464,338.7646591659868,left,0.4151841659331694,None,demo,001,2025-02-03_14h11.15.662,contrast_sensitivity,2024.2.4,None,2025-02-03 14h11.22.738845 -0500,
1.0,1,8,345,65,4,right,0.44840325007680804,None,4,65,345,48,338.77288116607815,,,,338.76710670802277,339.36219962500036,339.8144352500094,right,0.44840325007680804,None,demo,001,2025-02-03_14h11.15.662,contrast_sensitivity,2024.2.4,None,2025-02-03 14h11.22.738845 -0500,
1e-08,-1,2,346,66,4,left,0.9199803749797866,None,4,66,346,21,339.8229993750574,,,,339.81657812499907,340.4125650830101,341.3389337910339,left,0.9199803749797866,None,demo,001,2025-02-03_14h11.15.662,contrast_sensitivity,2024.2.4,None,2025-02-03 14h11.22.738845 -0500,
1e-08,1,1,347,67,4,left,0.33191812492441386,None,4,67,347,0,341.3451111660106,,,,341.34030341601465,341.93064558308106,342.2668044579914,left,0.33191812492441386,None,demo,001,2025-02-03_14h11.15.662,contrast_sensitivity,2024.2.4,None,2025-02-03 14h11.22.738845 -0500,
0.0001,-1,16,348,68,4,left,0.5192857079673558,None,4,68,348,65,342.277760625002,,,,342.2683169579832,342.86222066602204,343.3981402500067,left,0.5192857079673558,None,demo,001,2025-02-03_14h11.15.662,contrast_sensitivity,2024.2.4,None,2025-02-03 14h11.22.738845 -0500,
1e-08,-1,4,349,69,4,left,1.1533019579946995,None,4,69,349,35,343.4120235000737,,,,343.40042608301155,343.99816112499684,345.1635130000068,left,1.1533019579946995,None,demo,001,2025-02-03_14h11.15.662,contrast_sensitivity,2024.2.4,None,2025-02-03 14h11.22.738845 -0500,
0.0001,1,8,350,0,5,right,0.4000347489491105,None,5,0,350,44,345.1700089160586,,,,345.1652850829996,345.7624093750492,346.1647057500668,right,0.4000347489491105,None,demo,001,2025-02-03_14h11.15.662,contrast_sensitivity,2024.2.4,None,2025-02-03 14h11.22.738845 -0500,
1e-06,-1,1,351,1,5,right,0.6518532079644501,None,5,1,351,8,346.1790403330233,,,,346.166724291048,346.7615325830411,347.41897591599263,right,0.6518532079644501,None,demo,001,2025-02-03_14h11.15.662,contrast_sensitivity,2024.2.4,None,2025-02-03 14h11.22.738845 -0500,
0.01,-1,8,352,2,5,left,0.47736687399446964,None,5,2,352,53,347.4285549999913,,,,347.4215446660528,348.0160185410641,348.49792220804375,left,0.47736687399446964,None,demo,001,2025-02-03_14h11.15.662,contrast_sensitivity,2024.2.4,None,2025-02-03 14h11.22.738845 -0500,
0.1,1,16,353,3,5,right,0.4527278329478577,None,5,3,353,61,348.5123525829986,,,,348.5001117080683,349.0956146250246,349.56468983297236,right,0.4527278329478577,None,demo,001,2025-02-03_14h11.15.662,contrast_sensitivity,2024.2.4,None,2025-02-03 14h11.22.738845 -0500,
1.0,1,2,354,4,5,right,0.5598440410103649,None,5,4,354,20,349.5786931660259,,,,349.56641970807686,350.1614548750222,350.7296881660586,right,0.5598440410103649,None,demo,001,2025-02-03_14h11.15.662,contrast_sensitivity,2024.2.4,None,2025-02-03 14h11.22.738845 -0500,
0.001,1,4,355,5,5,right,0.5353768750792369,None,5,5,355,31,350.73487887508236,,,,350.7310500830645,351.3169329999946,351.86404750007205,right,0.5353768750792369,None,demo,001,2025-02-03_14h11.15.662,contrast_sensitivity,2024.2.4,None,2025-02-03 14h11.22.738845 -0500,
1.0,-1,16,356,6,5,left,0.3616215420188382,None,5,6,356,69,351.87361700006295,,,,351.8664864579914,352.4626777910162,352.83051891601644,left,0.3616215420188382,None,demo,001,2025-02-03_14h11.15.662,contrast_sensitivity,2024.2.4,None,2025-02-03 14h11.22.738845 -0500,
0.001,1,1,357,7,5,right,0.6234771249582991,None,5,7,357,3,352.839170500054,,,,352.8325688750483,353.4287516659824,354.06419283302967,right,0.6234771249582991,None,demo,001,2025-02-03_14h11.15.662,contrast_sensitivity,2024.2.4,None,2025-02-03 14h11.22.738845 -0500,
0.0001,-1,4,358,8,5,left,0.534919208032079,None,5,8,358,37,354.07319899997674,,,,354.06664220802486,354.66229858307634,355.20077829097863,left,0.534919208032079,None,demo,001,2025-02-03_14h11.15.662,contrast_sensitivity,2024.2.4,None,2025-02-03 14h11.22.738845 -0500,
1e-06,-1,2,359,9,5,left,0.3832114579854533,None,5,9,359,22,355.21190095797647,,,,355.20281770802103,355.8129621250555,356.1987999579869,left,0.3832114579854533,None,demo,001,2025-02-03_14h11.15.662,contrast_sensitivity,2024.2.4,None,2025-02-03 14h11.22.738845 -0500,
1.0,1,16,360,10,5,right,0.3412279989570379,None,5,10,360,62,356.21129070804454,,,,356.20032191602513,356.8129592500627,357.16396158304997,right,0.3412279989570379,None,demo,001,2025-02-03_14h11.15.662,contrast_sensitivity,2024.2.4,None,2025-02-03 14h11.22.738845 -0500,
1e-06,1,1,361,11,5,left,0.4628317489987239,None,5,11,361,1,357.1726111660246,,,,357.16594516602345,357.76230416598264,358.22933120804373,left,0.4628317489987239,None,demo,001,2025-02-03_14h11.15.662,contrast_sensitivity,2024.2.4,None,2025-02-03 14h11.22.738845 -0500,
1e-06,-1,16,362,12,5,left,0.7727763329166919,None,5,12,362,64,358.2345407080138,,,,358.2307263329858,358.8283325000666,359.61483908304945,left,0.7727763329166919,None,demo,001,2025-02-03_14h11.15.662,contrast_sensitivity,2024.2.4,None,2025-02-03 14h11.22.738845 -0500,
0.1,1,1,363,13,5,right,0.2886731659527868,None,5,13,363,5,359.6237744160462,,,,359.61793491605204,360.21238550008275,360.51491512497887,right,0.2886731659527868,None,demo,001,2025-02-03_14h11.15.662,contrast_sensitivity,2024.2.4,None,2025-02-03 14h11.22.738845 -0500,
0.01,1,16,364,14,5,right,0.5738994580460712,None,5,14,364,60,360.5230210410664,,,,360.51737775001675,361.1121581660118,361.6979377500247,right,0.5738994580460712,None,demo,001,2025-02-03_14h11.15.662,contrast_sensitivity,2024.2.4,None,2025-02-03 14h11.22.738845 -0500,
0.001,-1,8,365,15,5,left,0.2855870419880375,None,5,15,365,52,361.7064058750402,,,,361.699529250036,362.2954795000842,362.5851024159929,left,0.2855870419880375,None,demo,001,2025-02-03_14h11.15.662,contrast_sensitivity,2024.2.4,None,2025-02-03 14h11.22.738845 -0500,
0.0001,-1,16,366,16,5,left,0.39538891601841897,None,5,16,366,65,362.5951396659948,,,,362.5874779999722,363.18079316604417,363.5815331659978,left,0.39538891601841897,None,demo,001,2025-02-03_14h11.15.662,contrast_sensitivity,2024.2.4,None,2025-02-03 14h11.22.738845 -0500,
1.0,1,4,367,17,5,right,0.3560781659325585,None,5,17,367,34,363.5904798330739,,,,363.58390016597696,364.17892920807935,364.54819079104345,right,0.3560781659325585,None,demo,001,2025-02-03_14h11.15.662,contrast_sensitivity,2024.2.4,None,2025-02-03 14h11.22.738845 -0500,
1.0,-1,1,368,18,5,left,0.2917177500203252,None,5,18,368,13,364.5560923330486,,,,364.55055091599934,365.1453926250106,365.44672354101203,left,0.2917177500203252,None,demo,001,2025-02-03_14h11.15.662,contrast_sensitivity,2024.2.4,None,2025-02-03 14h11.22.738845 -0500,
0.01,-1,1,369,19,5,left,0.22737658303231,None,5,19,369,11,365.45347725006286,,,,365.44868337502703,366.04456866602413,366.279712083051,left,0.22737658303231,None,demo,001,2025-02-03_14h11.15.662,contrast_sensitivity,2024.2.4,None,2025-02-03 14h11.22.738845 -0500,
