contrast,location,size,thisN,thisTrialN,thisRepN,response.keys,response.rt,response.duration,trials.thisRepN,trials.thisTrialN,trials.thisN,trials.thisIndex,thisRow.t,notes,begin_experiment.started,begin_experiment.stopped,trial.started,response.started,trial.stopped,trials.response.keys,trials.response.rt,trials.response.duration,participant,session,date,expName,psychopyVersion,frameRate,expStart,
,,,,,,,,,,,,,,,0.007093166001141071,1.271340791019611,,,,,,,demo,001,2025-01-26_14h53.57.070,contrast_sensitivity,2024.2.4,None,2025-01-26 14h54.03.030954 -0500,
1e-09,-1,0.1,0,0,0,left,0.9451696660835296,None,0,0,0,35,1.2946044580312446,,,,1.2786080830264837,1.868904915987514,2.8174378749681637,left,0.9451696660835296,None,demo,001,2025-01-26_14h53.57.070,contrast_sensitivity,2024.2.4,None,2025-01-26 14h54.03.030954 -0500,
1e-09,1,0.2,1,1,0,right,0.7063402079511434,None,0,1,1,14,2.8277777910698205,,,,2.8194783329963684,3.415872666053474,4.130057458067313,right,0.7063402079511434,None,demo,001,2025-01-26_14h53.57.070,contrast_sensitivity,2024.2.4,None,2025-01-26 14h54.03.030954 -0500,
1e-07,1,0.1,2,2,0,left,0.8456695829518139,None,0,2,2,29,4.138763041002676,,,,4.131919707986526,4.728304540971294,5.578296415973455,left,0.8456695829518139,None,demo,001,2025-01-26_14h53.57.070,contrast_sensitivity,2024.2.4,None,2025-01-26 14h54.03.030954 -0500,
0.1,-1,0.1,3,3,0,left,0.5981908750254661,None,0,3,3,40,5.583215291029774,,,,5.579485457972623,6.165830458048731,6.7672741250135005,left,0.5981908750254661,None,demo,001,2025-01-26_14h53.57.070,contrast_sensitivity,2024.2.4,None,2025-01-26 14h54.03.030954 -0500,
1e-07,1,0.4,4,4,0,left,0.6437317499658093,None,0,4,4,1,6.783827707986347,,,,6.769492250052281,7.3662440000334755,8.013560625026003,left,0.6437317499658093,None,demo,001,2025-01-26_14h53.57.070,contrast_sensitivity,2024.2.4,None,2025-01-26 14h54.03.030954 -0500,
0.1,-1,0.4,5,5,0,left,0.3646151670254767,None,0,5,5,12,8.02207491605077,,,,8.015622082981281,8.61134529102128,8.981041582999751,left,0.3646151670254767,None,demo,001,2025-01-26_14h53.57.070,contrast_sensitivity,2024.2.4,None,2025-01-26 14h54.03.030954 -0500,
0.1,1,0.1,6,6,0,right,0.38749787502456456,None,0,6,6,33,8.989621540997177,,,,8.983041708008386,9.578204708057456,9.967703666072339,right,0.38749787502456456,None,demo,001,2025-01-26_14h53.57.070,contrast_sensitivity,2024.2.4,None,2025-01-26 14h54.03.030954 -0500,
0.01,-1,0.4,7,7,0,left,0.34234533400740474,None,0,7,7,11,9.97800941602327,,,,9.969613458029926,10.566701165982522,10.913762666052207,left,0.34234533400740474,None,demo,001,2025-01-26_14h53.57.070,contrast_sensitivity,2024.2.4,None,2025-01-26 14h54.03.030954 -0500,
0.1,1,0.4,8,8,0,right,0.22157362499274313,None,0,8,8,5,10.922030166024342,,,,10.915614083060063,11.511292333016172,11.747853707987815,right,0.22157362499274313,None,demo,001,2025-01-26_14h53.57.070,contrast_sensitivity,2024.2.4,None,2025-01-26 14h54.03.030954 -0500,
1.0,-1,0.025,9,9,0,left,0.27824454102665186,None,0,9,9,69,11.75645554100629,,,,11.749854500056244,12.34462887502741,12.630893583060242,left,0.27824454102665186,None,demo,001,2025-01-26_14h53.57.070,contrast_sensitivity,2024.2.4,None,2025-01-26 14h54.03.030954 -0500,
1e-05,1,0.1,10,10,0,right,0.3206341249169782,None,0,10,10,30,12.638835499994457,,,,12.632910041022114,13.228181165992282,13.564037875039503,right,0.3206341249169782,None,demo,001,2025-01-26_14h53.57.070,contrast_sensitivity,2024.2.4,None,2025-01-26 14h54.03.030954 -0500,
0.01,1,0.2,11,11,0,right,0.37041500001214445,None,0,11,11,18,13.57822120806668,,,,13.565842083073221,14.161393583053723,14.533747666049749,right,0.37041500001214445,None,demo,001,2025-01-26_14h53.57.070,contrast_sensitivity,2024.2.4,None,2025-01-26 14h54.03.030954 -0500,
1e-05,-1,0.4,12,12,0,left,0.2857437920756638,None,0,12,12,9,14.544763708021492,,,,14.535719125065953,15.128069916041568,15.417325749993324,left,0.2857437920756638,None,demo,001,2025-01-26_14h53.57.070,contrast_sensitivity,2024.2.4,None,2025-01-26 14h54.03.030954 -0500,
0.1,1,0.05,13,13,0,right,1.745773333008401,None,0,13,13,47,15.427931000012904,,,,15.419187040999532,16.01599241606891,17.766848916071467,right,1.745773333008401,None,demo,001,2025-01-26_14h53.57.070,contrast_sensitivity,2024.2.4,None,2025-01-26 14h54.03.030954 -0500,
1e-05,-1,0.05,14,14,0,right,0.2040447910549119,None,0,14,14,51,17.777943875058554,,,,17.768731374992058,18.36670154100284,18.57944900006987,right,0.2040447910549119,None,demo,001,2025-01-26_14h53.57.070,contrast_sensitivity,2024.2.4,None,2025-01-26 14h54.03.030954 -0500,
1e-05,-1,0.1,15,15,0,left,0.2996435839449987,None,0,15,15,37,18.58564079098869,,,,18.581125166034326,19.17806583305355,19.48020287498366,left,0.2996435839449987,None,demo,001,2025-01-26_14h53.57.070,contrast_sensitivity,2024.2.4,None,2025-01-26 14h54.03.030954 -0500,
1e-09,1,0.1,16,16,0,left,0.23436875001061708,None,0,16,16,28,19.488571000052616,,,,19.48206766601652,20.078307625022717,20.317933875019662,left,0.23436875001061708,None,demo,001,2025-01-26_14h53.57.070,contrast_sensitivity,2024.2.4,None,2025-01-26 14h54.03.030954 -0500,
0.01,1,0.05,17,17,0,right,0.25258700002450496,None,0,17,17,46,20.327911791042425,,,,20.319949500029907,20.915121791069396,21.180531625053845,right,0.25258700002450496,None,demo,001,2025-01-26_14h53.57.070,contrast_sensitivity,2024.2.4,None,2025-01-26 14h54.03.030954 -0500,
0.001,1,0.4,18,18,0,right,0.14581854199059308,None,0,18,18,3,21.18948708300013,,,,21.182611832977273,21.77792995807249,21.930535249994136,right,0.14581854199059308,None,demo,001,2025-01-26_14h53.57.070,contrast_sensitivity,2024.2.4,None,2025-01-26 14h54.03.030954 -0500,
1e-07,1,0.2,19,19,0,right,0.13371529197320342,None,0,19,19,15,21.9384318330558,,,,21.932517208042555,22.527939207968302,22.66441179101821,right,0.13371529197320342,None,demo,001,2025-01-26_14h53.57.070,contrast_sensitivity,2024.2.4,None,2025-01-26 14h54.03.030954 -0500,
1e-07,-1,0.2,20,20,0,left,0.5989546249620616,None,0,20,20,22,22.672802999964915,,,,22.666551541071385,23.266658541047946,23.879291499964893,left,0.5989546249620616,None,demo,001,2025-01-26_14h53.57.070,contrast_sensitivity,2024.2.4,None,2025-01-26 14h54.03.030954 -0500,
0.01,-1,0.2,21,21,0,left,0.5164379579946399,None,0,21,21,25,23.895669874968007,,,,23.881214583059773,24.47813604096882,24.996762875001878,left,0.5164379579946399,None,demo,001,2025-01-26_14h53.57.070,contrast_sensitivity,2024.2.4,None,2025-01-26 14h54.03.030954 -0500,
1e-05,-1,0.025,22,22,0,right,0.7348188330652192,None,0,22,22,65,25.00559933297336,,,,24.998719249968417,25.59471554099582,26.333539915969595,right,0.7348188330652192,None,demo,001,2025-01-26_14h53.57.070,contrast_sensitivity,2024.2.4,None,2025-01-26 14h54.03.030954 -0500,
1e-09,1,0.4,23,23,0,left,0.4466274590231478,None,0,23,23,0,26.34471758303698,,,,26.335704416036606,26.927953083068132,27.380394291016273,left,0.4466274590231478,None,demo,001,2025-01-26_14h53.57.070,contrast_sensitivity,2024.2.4,None,2025-01-26 14h54.03.030954 -0500,
0.01,1,0.025,24,24,0,left,0.6725867920322344,None,0,24,24,60,27.388317833072506,,,,27.38240662496537,27.97790779103525,28.663402416044846,left,0.6725867920322344,None,demo,001,2025-01-26_14h53.57.070,contrast_sensitivity,2024.2.4,None,2025-01-26 14h54.03.030954 -0500,
0.001,1,0.2,25,25,0,left,0.795035041985102,None,0,25,25,17,28.672434250009246,,,,28.6654538330622,29.261561583029106,30.06305674999021,left,0.795035041985102,None,demo,001,2025-01-26_14h53.57.070,contrast_sensitivity,2024.2.4,None,2025-01-26 14h54.03.030954 -0500,
1e-07,1,0.05,26,26,0,left,0.936016249936074,None,0,26,26,43,30.071727916016243,,,,30.065172165981494,30.661435374990106,31.60003112500999,left,0.936016249936074,None,demo,001,2025-01-26_14h53.57.070,contrast_sensitivity,2024.2.4,None,2025-01-26 14h54.03.030954 -0500,
0.01,-1,0.1,27,27,0,right,0.4159406250109896,None,0,27,27,39,31.610336250043474,,,,31.601275332970545,32.211525916005485,32.63014662498608,right,0.4159406250109896,None,demo,001,2025-01-26_14h53.57.070,contrast_sensitivity,2024.2.4,None,2025-01-26 14h54.03.030954 -0500,
1.0,-1,0.1,28,28,0,left,0.5893710840027779,None,0,28,28,41,32.63855679100379,,,,32.631954416050576,33.228082875022665,33.83056925004348,left,0.5893710840027779,None,demo,001,2025-01-26_14h53.57.070,contrast_sensitivity,2024.2.4,None,2025-01-26 14h54.03.030954 -0500,
0.1,-1,0.05,29,29,0,left,0.6094696659129113,None,0,29,29,54,33.83949045802001,,,,33.83341920806561,34.42798420798499,35.04706483299378,left,0.6094696659129113,None,demo,001,2025-01-26_14h53.57.070,contrast_sensitivity,2024.2.4,None,2025-01-26 14h54.03.030954 -0500,
1.0,-1,0.05,30,30,0,left,0.5046399169368669,None,0,30,30,55,35.05561904096976,,,,35.049127708072774,35.64468420797493,36.15089354105294,left,0.5046399169368669,None,demo,001,2025-01-26_14h53.57.070,contrast_sensitivity,2024.2.4,None,2025-01-26 14h54.03.030954 -0500,
1e-09,-1,0.05,31,31,0,right,0.5815903329057619,None,0,31,31,49,36.1612677910598,,,,36.152832124964334,36.749752082978375,37.33355516602751,right,0.5815903329057619,None,demo,001,2025-01-26_14h53.57.070,contrast_sensitivity,2024.2.4,None,2025-01-26 14h54.03.030954 -0500,
0.001,-1,0.2,32,32,0,left,0.8145257500000298,None,0,32,32,24,37.34451375005301,,,,37.33508175006136,37.93277420802042,38.76332279096823,left,0.8145257500000298,None,demo,001,2025-01-26_14h53.57.070,contrast_sensitivity,2024.2.4,None,2025-01-26 14h54.03.030954 -0500,
0.001,-1,0.1,33,33,0,left,0.9750327920773998,None,0,33,33,38,38.77069604105782,,,,38.76512591599021,39.36136920796707,40.34816795797087,left,0.9750327920773998,None,demo,001,2025-01-26_14h53.57.070,contrast_sensitivity,2024.2.4,None,2025-01-26 14h54.03.030954 -0500,
0.001,1,0.1,34,34,0,right,0.4834855409571901,None,0,34,34,31,40.36144845804665,,,,40.35061725007836,40.94472983304877,41.43651441601105,right,0.4834855409571901,None,demo,001,2025-01-26_14h53.57.070,contrast_sensitivity,2024.2.4,None,2025-01-26 14h54.03.030954 -0500,
0.001,-1,0.4,35,35,0,left,0.8565290840342641,None,0,35,35,10,41.44460662500933,,,,41.43772041599732,42.03269612498116,42.89705641602632,left,0.8565290840342641,None,demo,001,2025-01-26_14h53.57.070,contrast_sensitivity,2024.2.4,None,2025-01-26 14h54.03.030954 -0500,
1.0,-1,0.2,36,36,0,left,0.46553216699976474,None,0,36,36,27,42.90579291607719,,,,42.89905391598586,43.49470558296889,43.9637114580255,left,0.46553216699976474,None,demo,001,2025-01-26_14h53.57.070,contrast_sensitivity,2024.2.4,None,2025-01-26 14h54.03.030954 -0500,
1.0,1,0.4,37,37,0,right,0.4809303750516847,None,0,37,37,6,43.97189825004898,,,,43.9655947079882,44.56125633302145,45.04727791598998,right,0.4809303750516847,None,demo,001,2025-01-26_14h53.57.070,contrast_sensitivity,2024.2.4,None,2025-01-26 14h54.03.030954 -0500,
0.01,1,0.4,38,38,0,right,0.3793062079930678,None,0,38,38,4,45.0553375830641,,,,45.04923687502742,45.6449257080676,46.03005129098892,right,0.3793062079930678,None,demo,001,2025-01-26_14h53.57.070,contrast_sensitivity,2024.2.4,None,2025-01-26 14h54.03.030954 -0500,
0.001,1,0.05,39,39,0,left,0.980969208991155,None,0,39,39,45,46.038171333028004,,,,46.031900624977425,46.62815004098229,47.613558583077975,left,0.980969208991155,None,demo,001,2025-01-26_14h53.57.070,contrast_sensitivity,2024.2.4,None,2025-01-26 14h54.03.030954 -0500,
1e-05,-1,0.2,40,40,0,left,0.6036613750038669,None,0,40,40,23,47.62187754106708,,,,47.61553187505342,48.211402375018224,48.816459625028074,left,0.6036613750038669,None,demo,001,2025-01-26_14h53.57.070,contrast_sensitivity,2024.2.4,None,2025-01-26 14h54.03.030954 -0500,
1e-09,1,0.05,41,41,0,left,0.41382858308497816,None,0,41,41,42,48.82790733303409,,,,48.818388832965866,49.411350541049615,49.829611958004534,left,0.41382858308497816,None,demo,001,2025-01-26_14h53.57.070,contrast_sensitivity,2024.2.4,None,2025-01-26 14h54.03.030954 -0500,
1.0,1,0.2,42,42,0,right,0.2977442080155015,None,0,42,42,20,49.83811112504918,,,,49.831469124997966,50.42824966600165,50.72970741603058,right,0.2977442080155015,None,demo,001,2025-01-26_14h53.57.070,contrast_sensitivity,2024.2.4,None,2025-01-26 14h54.03.030954 -0500,
0.1,1,0.2,43,43,0,right,0.36634087504353374,None,0,43,43,19,50.74385487497784,,,,50.731109625077806,51.32806783297565,51.69723170797806,right,0.36634087504353374,None,demo,001,2025-01-26_14h53.57.070,contrast_sensitivity,2024.2.4,None,2025-01-26 14h54.03.030954 -0500,
0.1,-1,0.2,44,44,0,left,0.28906045900657773,None,0,44,44,26,51.704990957980044,,,,51.69903683301527,52.294915458071046,52.597176915965974,left,0.28906045900657773,None,demo,001,2025-01-26_14h53.57.070,contrast_sensitivity,2024.2.4,None,2025-01-26 14h54.03.030954 -0500,
0.1,1,0.025,45,45,0,right,0.44022987491916865,None,0,45,45,61,52.61144925002009,,,,52.59888729103841,53.19473824999295,53.64657916605938,right,0.44022987491916865,None,demo,001,2025-01-26_14h53.57.070,contrast_sensitivity,2024.2.4,None,2025-01-26 14h54.03.030954 -0500,
1e-05,1,0.025,46,46,0,left,0.18909200001507998,None,0,46,46,58,53.655075666029006,,,,53.648528333054855,54.24486654100474,54.4467732909834,left,0.18909200001507998,None,demo,001,2025-01-26_14h53.57.070,contrast_sensitivity,2024.2.4,None,2025-01-26 14h54.03.030954 -0500,
1.0,-1,0.4,47,47,0,left,0.35520195902790874,None,0,47,47,13,54.45561308297329,,,,54.44879812502768,55.04473012499511,55.413412958034314,left,0.35520195902790874,None,demo,001,2025-01-26_14h53.57.070,contrast_sensitivity,2024.2.4,None,2025-01-26 14h54.03.030954 -0500,
1e-09,1,0.025,48,48,0,left,0.5746075420174748,None,0,48,48,56,55.422321415971965,,,,55.415456000017,56.01136170804966,56.59738408296835,left,0.5746075420174748,None,demo,001,2025-01-26_14h53.57.070,contrast_sensitivity,2024.2.4,None,2025-01-26 14h54.03.030954 -0500,
1e-07,-1,0.4,49,49,0,right,0.6144493340980262,None,0,49,49,8,56.60555054107681,,,,56.59937108296435,57.19454220798798,57.81406733300537,right,0.6144493340980262,None,demo,001,2025-01-26_14h53.57.070,contrast_sensitivity,2024.2.4,None,2025-01-26 14h54.03.030954 -0500,
0.001,1,0.025,50,50,0,right,0.5994513330515474,None,0,50,50,59,57.828157540992834,,,,57.81594150001183,58.41143262502737,59.013617250020616,right,0.5994513330515474,None,demo,001,2025-01-26_14h53.57.070,contrast_sensitivity,2024.2.4,None,2025-01-26 14h54.03.030954 -0500,
1e-07,-1,0.025,51,51,0,right,0.2873140840092674,None,0,51,51,64,59.021801625029184,,,,59.015579457976855,59.611530250054784,59.900743999984115,right,0.2873140840092674,None,demo,001,2025-01-26_14h53.57.070,contrast_sensitivity,2024.2.4,None,2025-01-26 14h54.03.030954 -0500,
1e-09,-1,0.4,52,52,0,left,0.5378366250079125,None,0,52,52,7,59.91123391606379,,,,59.90332954097539,60.500010665971786,61.047107583028264,left,0.5378366250079125,None,demo,001,2025-01-26_14h53.57.070,contrast_sensitivity,2024.2.4,None,2025-01-26 14h54.03.030954 -0500,
0.001,-1,0.025,53,53,0,right,0.4642835829872638,None,0,53,53,66,61.055715000024065,,,,61.049150875071064,61.64452441607136,62.11380058305804,right,0.4642835829872638,None,demo,001,2025-01-26_14h53.57.070,contrast_sensitivity,2024.2.4,None,2025-01-26 14h54.03.030954 -0500,
1e-07,-1,0.1,54,54,0,right,0.7154739999677986,None,0,54,54,36,62.12244387506507,,,,62.11572404101025,62.71132395800669,63.42989354103338,right,0.7154739999677986,None,demo,001,2025-01-26_14h53.57.070,contrast_sensitivity,2024.2.4,None,2025-01-26 14h54.03.030954 -0500,
0.01,-1,0.05,55,55,0,left,0.5005363329546526,None,0,55,55,53,63.43882325000595,,,,63.431851124973036,64.02815104101319,64.53359129105229,left,0.5005363329546526,None,demo,001,2025-01-26_14h53.57.070,contrast_sensitivity,2024.2.4,None,2025-01-26 14h54.03.030954 -0500,
0.001,-1,0.05,56,56,0,left,0.46747070807032287,None,0,56,56,52,64.5444996249862,,,,64.53565425006673,65.13225758296903,65.61375374998897,left,0.46747070807032287,None,demo,001,2025-01-26_14h53.57.070,contrast_sensitivity,2024.2.4,None,2025-01-26 14h54.03.030954 -0500,
1.0,1,0.1,57,57,0,right,0.2639675420941785,None,0,57,57,34,65.62252529105172,,,,65.61573170800693,66.21175454102922,66.48116466600914,right,0.2639675420941785,None,demo,001,2025-01-26_14h53.57.070,contrast_sensitivity,2024.2.4,None,2025-01-26 14h54.03.030954 -0500,
1.0,1,0.05,58,58,0,right,0.3776469170115888,None,0,58,58,48,66.48896645801142,,,,66.48325699998531,67.07805637503043,67.4637484580744,right,0.3776469170115888,None,demo,001,2025-01-26_14h53.57.070,contrast_sensitivity,2024.2.4,None,2025-01-26 14h54.03.030954 -0500,
0.1,-1,0.025,59,59,0,right,0.5860604579793289,None,0,59,59,68,67.47298716602381,,,,67.46602595807053,68.13677329104394,68.72997358301654,right,0.5860604579793289,None,demo,001,2025-01-26_14h53.57.070,contrast_sensitivity,2024.2.4,None,2025-01-26 14h54.03.030954 -0500,
1e-09,-1,0.2,60,60,0,right,0.5824857080588117,None,0,60,60,21,68.73857629101258,,,,68.73214270803146,69.32817116600927,69.9141317079775,right,0.5824857080588117,None,demo,001,2025-01-26_14h53.57.070,contrast_sensitivity,2024.2.4,None,2025-01-26 14h54.03.030954 -0500,
0.01,1,0.1,61,61,0,left,0.9271540829213336,None,0,61,61,32,69.92240712500643,,,,69.91594012500718,70.51145016599912,71.44671012507752,left,0.9271540829213336,None,demo,001,2025-01-26_14h53.57.070,contrast_sensitivity,2024.2.4,None,2025-01-26 14h54.03.030954 -0500,
1e-09,-1,0.025,62,62,0,left,0.43891074997372925,None,0,62,62,63,71.45390924997628,,,,71.44852129102219,72.04469179105945,72.4969407080207,left,0.43891074997372925,None,demo,001,2025-01-26_14h53.57.070,contrast_sensitivity,2024.2.4,None,2025-01-26 14h54.03.030954 -0500,
1e-07,1,0.025,63,63,0,right,0.7656902080634609,None,0,63,63,57,72.5057815409964,,,,72.49885404098313,73.09488054097164,73.86386849998962,right,0.7656902080634609,None,demo,001,2025-01-26_14h53.57.070,contrast_sensitivity,2024.2.4,None,2025-01-26 14h54.03.030954 -0500,
1e-05,1,0.4,64,64,0,right,0.44716400001198053,None,0,64,64,2,73.87273775006179,,,,73.86602795799263,74.46135470806621,74.9146627499722,right,0.44716400001198053,None,demo,001,2025-01-26_14h53.57.070,contrast_sensitivity,2024.2.4,None,2025-01-26 14h54.03.030954 -0500,
1e-05,1,0.2,65,65,0,right,1.1712612910196185,None,0,65,65,16,74.92822995805182,,,,74.91649079101626,75.51131883298513,76.68459874996915,right,1.1712612910196185,None,demo,001,2025-01-26_14h53.57.070,contrast_sensitivity,2024.2.4,None,2025-01-26 14h54.03.030954 -0500,
1e-07,-1,0.05,66,66,0,left,0.7264561660122126,None,0,66,66,50,76.6947212080704,,,,76.68646137497853,77.28401287505403,78.01282479101792,left,0.7264561660122126,None,demo,001,2025-01-26_14h53.57.070,contrast_sensitivity,2024.2.4,None,2025-01-26 14h54.03.030954 -0500,
0.01,-1,0.025,67,67,0,left,1.3137133750133216,None,0,67,67,67,78.01980670797639,,,,78.0148562079994,78.61173416604288,79.93071612506174,left,1.3137133750133216,None,demo,001,2025-01-26_14h53.57.070,contrast_sensitivity,2024.2.4,None,2025-01-26 14h54.03.030954 -0500,
1.0,1,0.025,68,68,0,right,0.44295866694301367,None,0,68,68,62,79.94479674997274,,,,79.93232895806432,80.52844433300197,80.98071491601877,right,0.44295866694301367,None,demo,001,2025-01-26_14h53.57.070,contrast_sensitivity,2024.2.4,None,2025-01-26 14h54.03.030954 -0500,
1e-05,1,0.05,69,69,0,left,1.1261576669057831,None,0,69,69,44,80.99000066600274,,,,80.98334683303256,81.5781620410271,82.7130722909933,left,1.1261576669057831,None,demo,001,2025-01-26_14h53.57.070,contrast_sensitivity,2024.2.4,None,2025-01-26 14h54.03.030954 -0500,
0.001,-1,0.2,70,0,1,right,0.7487133749527857,None,1,0,70,24,82.72082679101732,,,,82.71515154105145,83.3116656250786,84.06484916596673,right,0.7487133749527857,None,demo,001,2025-01-26_14h53.57.070,contrast_sensitivity,2024.2.4,None,2025-01-26 14h54.03.030954 -0500,
1e-07,1,0.05,71,1,1,right,0.832531874999404,None,1,1,71,43,84.07290712499525,,,,84.06719966605306,84.66175020800438,85.4970565000549,right,0.832531874999404,None,demo,001,2025-01-26_14h53.57.070,contrast_sensitivity,2024.2.4,None,2025-01-26 14h54.03.030954 -0500,
0.1,1,0.2,72,2,1,right,0.5246437080204487,None,1,2,72,19,85.50517237500753,,,,85.49886237503961,86.09470420796424,86.63038933300413,right,0.5246437080204487,None,demo,001,2025-01-26_14h53.57.070,contrast_sensitivity,2024.2.4,None,2025-01-26 14h54.03.030954 -0500,
0.001,-1,0.4,73,3,1,left,0.7840376250678673,None,1,3,73,10,86.63930200005416,,,,86.63243250001688,87.22816587507259,88.01766720798332,left,0.7840376250678673,None,demo,001,2025-01-26_14h53.57.070,contrast_sensitivity,2024.2.4,None,2025-01-26 14h54.03.030954 -0500,
1e-09,1,0.05,74,4,1,right,0.599854875006713,None,1,4,74,42,88.02797141601332,,,,88.01975879096426,88.61137833306566,89.21380000002682,right,0.599854875006713,None,demo,001,2025-01-26_14h53.57.070,contrast_sensitivity,2024.2.4,None,2025-01-26 14h54.03.030954 -0500,
0.01,-1,0.025,75,5,1,right,0.6373860000167042,None,1,5,75,67,89.2222376660211,,,,89.21594520797953,89.81178162503056,90.45048450003378,right,0.6373860000167042,None,demo,001,2025-01-26_14h53.57.070,contrast_sensitivity,2024.2.4,None,2025-01-26 14h54.03.030954 -0500,
0.001,-1,0.05,76,6,1,left,0.6884144579526037,None,1,6,76,52,90.4614231659798,,,,90.452621000004,91.0447001659777,91.74670787504874,left,0.6884144579526037,None,demo,001,2025-01-26_14h53.57.070,contrast_sensitivity,2024.2.4,None,2025-01-26 14h54.03.030954 -0500,
0.001,1,0.1,77,7,1,right,0.9847777499817312,None,1,7,77,31,91.75476833304856,,,,91.74861629097722,92.34434320800938,93.3344102500705,right,0.9847777499817312,None,demo,001,2025-01-26_14h53.57.070,contrast_sensitivity,2024.2.4,None,2025-01-26 14h54.03.030954 -0500,
1.0,1,0.2,78,8,1,right,0.5501093750353903,None,1,8,78,20,93.34463133302052,,,,93.33631908299867,93.93305037496611,94.49800254101865,right,0.5501093750353903,None,demo,001,2025-01-26_14h53.57.070,contrast_sensitivity,2024.2.4,None,2025-01-26 14h54.03.030954 -0500,
0.01,1,0.025,79,9,1,right,0.5013197499793023,None,1,9,79,60,94.50660370802507,,,,94.49990783305839,95.09473670797888,95.60028262506239,right,0.5013197499793023,None,demo,001,2025-01-26_14h53.57.070,contrast_sensitivity,2024.2.4,None,2025-01-26 14h54.03.030954 -0500,
1.0,-1,0.4,80,10,1,left,0.3882525829831138,None,1,10,80,13,95.61146691604517,,,,95.60234695801046,96.19476283306722,96.5968260000227,left,0.3882525829831138,None,demo,001,2025-01-26_14h53.57.070,contrast_sensitivity,2024.2.4,None,2025-01-26 14h54.03.030954 -0500,
1e-07,1,0.025,81,11,1,right,0.4729795840103179,None,1,11,81,57,96.60532129101921,,,,96.59874079097062,97.19409016601276,97.6804171249969,right,0.4729795840103179,None,demo,001,2025-01-26_14h53.57.070,contrast_sensitivity,2024.2.4,None,2025-01-26 14h54.03.030954 -0500,
0.001,1,0.2,82,12,1,right,0.547776999999769,None,1,12,82,17,97.68893408298027,,,,97.68232987506781,98.27725754107814,98.83087570802309,right,0.547776999999769,None,demo,001,2025-01-26_14h53.57.070,contrast_sensitivity,2024.2.4,None,2025-01-26 14h54.03.030954 -0500,
0.01,-1,0.2,83,13,1,left,0.566880458034575,None,1,13,83,25,98.83919916604646,,,,98.83273179107346,99.42806579102762,99.9969660830684,left,0.566880458034575,None,demo,001,2025-01-26_14h53.57.070,contrast_sensitivity,2024.2.4,None,2025-01-26 14h54.03.030954 -0500,
0.001,1,0.4,84,14,1,left,0.5489612079691142,None,1,14,84,3,100.00519620801788,,,,99.99880000005942,100.59500900004059,101.14689733297564,left,0.5489612079691142,None,demo,001,2025-01-26_14h53.57.070,contrast_sensitivity,2024.2.4,None,2025-01-26 14h54.03.030954 -0500,
1e-07,-1,0.05,85,15,1,right,0.5123462500050664,None,1,15,85,50,101.15591970807873,,,,101.14896904106718,101.74471975001507,102.26351458299905,right,0.5123462500050664,None,demo,001,2025-01-26_14h53.57.070,contrast_sensitivity,2024.2.4,None,2025-01-26 14h54.03.030954 -0500,
1e-07,-1,0.2,86,16,1,left,1.0632404170464724,None,1,16,86,22,102.27239858300891,,,,102.26556095806882,102.86067404097412,103.92999704100657,left,1.0632404170464724,None,demo,001,2025-01-26_14h53.57.070,contrast_sensitivity,2024.2.4,None,2025-01-26 14h54.03.030954 -0500,
1e-09,-1,0.05,87,17,1,right,0.5896034999750555,None,1,17,87,49,103.93807995796669,,,,103.93196454097051,104.52725233300589,105.13078783301171,right,0.5896034999750555,None,demo,001,2025-01-26_14h53.57.070,contrast_sensitivity,2024.2.4,None,2025-01-26 14h54.03.030954 -0500,
0.1,-1,0.1,88,18,1,left,0.43342579097952694,None,1,18,88,40,105.1395867910469,,,,105.13287854101509,105.7283893750282,106.16742279101163,left,0.43342579097952694,None,demo,001,2025-01-26_14h53.57.070,contrast_sensitivity,2024.2.4,None,2025-01-26 14h54.03.030954 -0500,
0.001,-1,0.025,89,19,1,right,0.42634179105516523,None,1,19,89,66,106.17804687505122,,,,106.16936816601083,106.77858966600616,107.21407183306292,right,0.42634179105516523,None,demo,001,2025-01-26_14h53.57.070,contrast_sensitivity,2024.2.4,None,2025-01-26 14h54.03.030954 -0500,
0.01,1,0.4,90,20,1,right,0.4085940408986062,None,1,20,90,4,107.2219408750534,,,,107.21604154107627,107.82855075004045,108.24693970801309,right,0.4085940408986062,None,demo,001,2025-01-26_14h53.57.070,contrast_sensitivity,2024.2.4,None,2025-01-26 14h54.03.030954 -0500,
1.0,-1,0.2,91,21,1,left,0.2558000839781016,None,1,21,91,27,108.25587958307005,,,,108.24880795797799,108.84499962499831,109.11382741597481,left,0.2558000839781016,None,demo,001,2025-01-26_14h53.57.070,contrast_sensitivity,2024.2.4,None,2025-01-26 14h54.03.030954 -0500,
0.1,1,0.1,92,22,1,right,0.2302665839670226,None,1,22,92,33,109.12203225004487,,,,109.11564537498634,109.71152204100508,109.94726220797747,right,0.2302665839670226,None,demo,001,2025-01-26_14h53.57.070,contrast_sensitivity,2024.2.4,None,2025-01-26 14h54.03.030954 -0500,
1e-09,-1,0.4,93,23,1,left,0.5074193750042468,None,1,23,93,7,109.95575729105622,,,,109.94917458307464,110.562229125062,111.07865058304742,left,0.5074193750042468,None,demo,001,2025-01-26_14h53.57.070,contrast_sensitivity,2024.2.4,None,2025-01-26 14h54.03.030954 -0500,
1e-05,1,0.025,94,24,1,left,0.49860849999822676,None,1,24,94,58,111.08522666606586,,,,111.07998729101382,111.6651682080701,112.16774641606025,left,0.49860849999822676,None,demo,001,2025-01-26_14h53.57.070,contrast_sensitivity,2024.2.4,None,2025-01-26 14h54.03.030954 -0500,
1e-09,1,0.025,95,25,1,left,0.621536499937065,None,1,25,95,56,112.17797320801765,,,,112.16983379097655,112.76625437499024,113.39753233303782,left,0.621536499937065,None,demo,001,2025-01-26_14h53.57.070,contrast_sensitivity,2024.2.4,None,2025-01-26 14h54.03.030954 -0500,
0.1,-1,0.05,96,26,1,left,0.9018297500442713,None,1,26,96,54,113.40644516597968,,,,113.39955933298916,113.9948451659875,114.90134900005069,left,0.9018297500442713,None,demo,001,2025-01-26_14h53.57.070,contrast_sensitivity,2024.2.4,None,2025-01-26 14h54.03.030954 -0500,
1e-05,-1,0.025,97,27,1,left,0.7175234170863405,None,1,27,97,65,114.91121487505734,,,,114.90326204104349,115.4971535410732,116.21896637498867,left,0.7175234170863405,None,demo,001,2025-01-26_14h53.57.070,contrast_sensitivity,2024.2.4,None,2025-01-26 14h54.03.030954 -0500,
1e-07,1,0.2,98,28,1,right,0.42538866598624736,None,1,28,98,15,116.22713979100809,,,,116.2207367910305,116.81634179106914,117.24762008304242,right,0.42538866598624736,None,demo,001,2025-01-26_14h53.57.070,contrast_sensitivity,2024.2.4,None,2025-01-26 14h54.03.030954 -0500,
1.0,1,0.1,99,29,1,right,0.4046955000376329,None,1,29,99,34,117.25617895799223,,,,117.24971120804548,117.84385437506717,118.25083258305676,right,0.4046955000376329,None,demo,001,2025-01-26_14h53.57.070,contrast_sensitivity,2024.2.4,None,2025-01-26 14h54.03.030954 -0500,
0.01,-1,0.05,100,30,1,right,0.41180245799478143,None,1,30,100,53,118.26145883300342,,,,118.25275620806497,118.84488700004295,119.26333500002511,right,0.41180245799478143,None,demo,001,2025-01-26_14h53.57.070,contrast_sensitivity,2024.2.4,None,2025-01-26 14h54.03.030954 -0500,
0.01,-1,0.4,101,31,1,left,0.484711250057444,None,1,31,101,11,119.27206570806447,,,,119.26530633307993,119.86182737501804,120.35087816603482,left,0.484711250057444,None,demo,001,2025-01-26_14h53.57.070,contrast_sensitivity,2024.2.4,None,2025-01-26 14h54.03.030954 -0500,
0.01,1,0.05,102,32,1,right,0.49552637489978224,None,1,32,102,46,120.36140112497378,,,,120.3528403750388,120.94900779100135,121.44708033301868,right,0.49552637489978224,None,demo,001,2025-01-26_14h53.57.070,contrast_sensitivity,2024.2.4,None,2025-01-26 14h54.03.030954 -0500,
1e-05,1,0.4,103,33,1,right,0.2874693749472499,None,1,33,103,2,121.45597500004806,,,,121.44913874997292,122.0449956250377,122.33404791599605,right,0.2874693749472499,None,demo,001,2025-01-26_14h53.57.070,contrast_sensitivity,2024.2.4,None,2025-01-26 14h54.03.030954 -0500,
1e-09,-1,0.1,104,34,1,left,0.256985834101215,None,1,34,104,35,122.34477991599124,,,,122.33579837507568,122.9326150000561,123.19726045802236,left,0.256985834101215,None,demo,001,2025-01-26_14h53.57.070,contrast_sensitivity,2024.2.4,None,2025-01-26 14h54.03.030954 -0500,
1e-07,1,0.1,105,35,1,left,0.5429345839656889,None,1,35,105,29,123.20534574997146,,,,123.19940716598649,123.7944991249824,124.34676416602451,left,0.5429345839656889,None,demo,001,2025-01-26_14h53.57.070,contrast_sensitivity,2024.2.4,None,2025-01-26 14h54.03.030954 -0500,
1.0,-1,0.05,106,36,1,left,0.341451833024621,None,1,36,106,55,124.35522475000471,,,,124.34867774997838,124.94495366606861,125.29739145806525,left,0.341451833024621,None,demo,001,2025-01-26_14h53.57.070,contrast_sensitivity,2024.2.4,None,2025-01-26 14h54.03.030954 -0500,
1e-09,1,0.4,107,37,1,left,0.7933688330231234,None,1,37,107,0,125.3059750830289,,,,125.29975187499076,125.89504087506793,126.69718825002201,left,0.7933688330231234,None,demo,001,2025-01-26_14h53.57.070,contrast_sensitivity,2024.2.4,None,2025-01-26 14h54.03.030954 -0500,
0.1,1,0.05,108,38,1,right,0.3545749579789117,None,1,38,108,47,126.70547154103406,,,,126.69918937503826,127.29477224999573,127.6634622500278,right,0.3545749579789117,None,demo,001,2025-01-26_14h53.57.070,contrast_sensitivity,2024.2.4,None,2025-01-26 14h54.03.030954 -0500,
0.1,1,0.4,109,39,1,right,0.14677395904436707,None,1,39,109,5,127.67232587502804,,,,127.66550162504427,128.26158699998632,128.41407066606916,right,0.14677395904436707,None,demo,001,2025-01-26_14h53.57.070,contrast_sensitivity,2024.2.4,None,2025-01-26 14h54.03.030954 -0500,
1.0,1,0.025,110,40,1,right,0.41471529204864055,None,1,40,110,62,128.42198250000365,,,,128.41623774997424,129.0115949580213,129.43011083302554,right,0.41471529204864055,None,demo,001,2025-01-26_14h53.57.070,contrast_sensitivity,2024.2.4,None,2025-01-26 14h54.03.030954 -0500,
1e-05,1,0.05,111,41,1,right,0.38612383406143636,None,1,41,111,44,129.43772887496743,,,,129.43197875004262,130.02816033305135,130.415837166016,right,0.38612383406143636,None,demo,001,2025-01-26_14h53.57.070,contrast_sensitivity,2024.2.4,None,2025-01-26 14h54.03.030954 -0500,
1e-05,-1,0.05,112,42,1,left,0.4726649590302259,None,1,42,112,51,130.42771370802075,,,,130.4170265410794,131.0116522500757,131.49711129104253,left,0.4726649590302259,None,demo,001,2025-01-26_14h53.57.070,contrast_sensitivity,2024.2.4,None,2025-01-26 14h54.03.030954 -0500,
0.1,-1,0.025,113,43,1,left,0.5736035419395193,None,1,43,113,68,131.5055232499726,,,,131.49906445806846,132.09463854099158,132.6801233330043,left,0.5736035419395193,None,demo,001,2025-01-26_14h53.57.070,contrast_sensitivity,2024.2.4,None,2025-01-26 14h54.03.030954 -0500,
1e-09,-1,0.2,114,44,1,left,0.4340753339929506,None,1,44,114,21,132.68919883307535,,,,132.6822341660736,133.27812245802488,133.71760329103563,left,0.4340753339929506,None,demo,001,2025-01-26_14h53.57.070,contrast_sensitivity,2024.2.4,None,2025-01-26 14h54.03.030954 -0500,
0.1,1,0.025,115,45,1,right,0.6451819170033559,None,1,45,115,61,133.72797033307143,,,,133.71919562504627,134.3160577910021,134.9640180830611,right,0.6451819170033559,None,demo,001,2025-01-26_14h53.57.070,contrast_sensitivity,2024.2.4,None,2025-01-26 14h54.03.030954 -0500,
1e-05,-1,0.2,116,46,1,left,0.4335124170174822,None,1,46,116,23,134.97207554103807,,,,134.96588074998,135.5616301660193,136.0011122500291,left,0.4335124170174822,None,demo,001,2025-01-26_14h53.57.070,contrast_sensitivity,2024.2.4,None,2025-01-26 14h54.03.030954 -0500,
1e-05,-1,0.1,117,47,1,left,0.5496190419653431,None,1,47,117,37,136.011214750004,,,,136.00333687500097,136.5995148330694,137.16320233303122,left,0.5496190419653431,None,demo,001,2025-01-26_14h53.57.070,contrast_sensitivity,2024.2.4,None,2025-01-26 14h54.03.030954 -0500,
0.001,1,0.05,118,48,1,left,0.5874775840202346,None,1,48,118,45,137.16900245798752,,,,137.16456079098862,137.7616288330173,138.35160175000783,left,0.5874775840202346,None,demo,001,2025-01-26_14h53.57.070,contrast_sensitivity,2024.2.4,None,2025-01-26 14h54.03.030954 -0500,
0.001,1,0.025,119,49,1,right,0.8649164160015061,None,1,49,119,59,138.36147941602394,,,,138.3534887910355,138.94923191599082,139.81739012501203,right,0.8649164160015061,None,demo,001,2025-01-26_14h53.57.070,contrast_sensitivity,2024.2.4,None,2025-01-26 14h54.03.030954 -0500,
0.01,1,0.1,120,50,1,right,0.7201748340157792,None,1,50,120,32,139.82807037502062,,,,139.8193565410329,140.41592095803935,141.1464079580037,right,0.7201748340157792,None,demo,001,2025-01-26_14h53.57.070,contrast_sensitivity,2024.2.4,None,2025-01-26 14h54.03.030954 -0500,
0.01,-1,0.1,121,51,1,right,0.7531362089794129,None,1,51,121,39,141.1547788750613,,,,141.14826150005683,141.7449285830371,142.50121958297677,right,0.7531362089794129,None,demo,001,2025-01-26_14h53.57.070,contrast_sensitivity,2024.2.4,None,2025-01-26 14h54.03.030954 -0500,
0.1,-1,0.4,122,52,1,left,0.4000294590368867,None,1,52,122,12,142.51156983303372,,,,142.50310616602656,143.0989922080189,143.51188695803285,left,0.4000294590368867,None,demo,001,2025-01-26_14h53.57.070,contrast_sensitivity,2024.2.4,None,2025-01-26 14h54.03.030954 -0500,
1e-09,1,0.2,123,53,1,left,0.8274464580463246,None,1,53,123,14,143.5167437500786,,,,143.51305554097053,144.11055845802184,144.94683375000022,left,0.8274464580463246,None,demo,001,2025-01-26_14h53.57.070,contrast_sensitivity,2024.2.4,None,2025-01-26 14h54.03.030954 -0500,
1.0,1,0.05,124,54,1,right,0.3893349579302594,None,1,54,124,48,144.95565341599286,,,,144.94901387498248,145.54461279103998,145.94715187500697,right,0.3893349579302594,None,demo,001,2025-01-26_14h53.57.070,contrast_sensitivity,2024.2.4,None,2025-01-26 14h54.03.030954 -0500,
1.0,-1,0.025,125,55,1,left,0.3491053329780698,None,1,55,125,69,145.95576512499247,,,,145.94917145802174,146.54388470808044,146.8969361659838,left,0.3491053329780698,None,demo,001,2025-01-26_14h53.57.070,contrast_sensitivity,2024.2.4,None,2025-01-26 14h54.03.030954 -0500,
1e-07,1,0.4,126,56,1,left,1.4318332920083776,None,1,56,126,1,146.90531758300494,,,,146.89876070804894,147.49504808301572,148.9305707910098,left,1.4318332920083776,None,demo,001,2025-01-26_14h53.57.070,contrast_sensitivity,2024.2.4,None,2025-01-26 14h54.03.030954 -0500,
1e-05,-1,0.4,127,57,1,left,0.3606840840075165,None,1,57,127,9,148.93928541603964,,,,148.9322940830607,149.52833133307286,149.89667320798617,left,0.3606840840075165,None,demo,001,2025-01-26_14h53.57.070,contrast_sensitivity,2024.2.4,None,2025-01-26 14h54.03.030954 -0500,
0.01,1,0.2,128,58,1,left,0.44691620906814933,None,1,58,128,18,149.9053764580749,,,,149.8987475000322,150.49497508304194,150.94773116603028,left,0.44691620906814933,None,demo,001,2025-01-26_14h53.57.070,contrast_sensitivity,2024.2.4,None,2025-01-26 14h54.03.030954 -0500,
1e-07,-1,0.025,129,59,1,left,0.5690168340224773,None,1,59,129,64,150.9618553330656,,,,150.9496557500679,151.54484262503684,152.11789791600313,left,0.5690168340224773,None,demo,001,2025-01-26_14h53.57.070,contrast_sensitivity,2024.2.4,None,2025-01-26 14h54.03.030954 -0500,
1e-07,-1,0.1,130,60,1,left,0.5140647919615731,None,1,60,130,36,152.1279260830488,,,,152.12005595804658,152.71680649998598,153.23414208297618,left,0.5140647919615731,None,demo,001,2025-01-26_14h53.57.070,contrast_sensitivity,2024.2.4,None,2025-01-26 14h54.03.030954 -0500,
1e-09,-1,0.025,131,61,1,right,0.37151783297304064,None,1,61,131,63,153.2447389580775,,,,153.23629220807925,153.83340866607614,154.21377733303234,right,0.37151783297304064,None,demo,001,2025-01-26_14h53.57.070,contrast_sensitivity,2024.2.4,None,2025-01-26 14h54.03.030954 -0500,
1e-09,1,0.1,132,62,1,right,0.36808749998454005,None,1,62,132,28,154.2221670000581,,,,154.21565983304754,154.8116642080713,155.1841314160265,right,0.36808749998454005,None,demo,001,2025-01-26_14h53.57.070,contrast_sensitivity,2024.2.4,None,2025-01-26 14h54.03.030954 -0500,
0.001,-1,0.1,133,63,1,left,0.5249592920299619,None,1,63,133,38,155.1946186249843,,,,155.18611949996557,155.78286662499886,156.31400366604794,left,0.5249592920299619,None,demo,001,2025-01-26_14h53.57.070,contrast_sensitivity,2024.2.4,None,2025-01-26 14h54.03.030954 -0500,
1e-07,-1,0.4,134,64,1,left,0.4891885829856619,None,1,64,134,8,156.32242791599128,,,,156.31594520807266,156.91153637506068,157.41316145798191,left,0.4891885829856619,None,demo,001,2025-01-26_14h53.57.070,contrast_sensitivity,2024.2.4,None,2025-01-26 14h54.03.030954 -0500,
1e-05,1,0.1,135,65,1,left,0.31806129100732505,None,1,65,135,30,157.42186179105192,,,,157.4151940830052,158.0115985000739,158.33428000006825,left,0.31806129100732505,None,demo,001,2025-01-26_14h53.57.070,contrast_sensitivity,2024.2.4,None,2025-01-26 14h54.03.030954 -0500,
1.0,1,0.4,136,66,1,right,0.03922633302863687,None,1,66,136,6,158.3447082079947,,,,158.33635183307342,158.93253462505527,158.97998320800252,right,0.03922633302863687,None,demo,001,2025-01-26_14h53.57.070,contrast_sensitivity,2024.2.4,None,2025-01-26 14h54.03.030954 -0500,
1e-05,1,0.2,137,67,1,left,0.5259022910613567,None,1,67,137,16,158.98846566607244,,,,158.98213245801162,159.58287916600239,160.11399962496944,left,0.5259022910613567,None,demo,001,2025-01-26_14h53.57.070,contrast_sensitivity,2024.2.4,None,2025-01-26 14h54.03.030954 -0500,
1.0,-1,0.1,138,68,1,left,0.3850199159933254,None,1,68,138,41,160.12268433300778,,,,160.1160043750424,160.71568187500816,161.11412354104687,left,0.3850199159933254,None,demo,001,2025-01-26_14h53.57.070,contrast_sensitivity,2024.2.4,None,2025-01-26 14h54.03.030954 -0500,
0.1,-1,0.2,139,69,1,left,0.30377137497998774,None,1,69,139,26,161.12208037497476,,,,161.11620912502985,161.7118260830175,162.01740683300886,left,0.30377137497998774,None,demo,001,2025-01-26_14h53.57.070,contrast_sensitivity,2024.2.4,None,2025-01-26 14h54.03.030954 -0500,
1e-07,-1,0.1,140,0,2,left,0.5139621249400079,None,2,0,140,36,162.02795066602994,,,,162.01953483303078,162.61668179102708,163.13362479105126,left,0.5139621249400079,None,demo,001,2025-01-26_14h53.57.070,contrast_sensitivity,2024.2.4,None,2025-01-26 14h54.03.030954 -0500,
1.0,1,0.2,141,1,2,right,0.3065162500133738,None,2,1,141,20,163.14450258307625,,,,163.13541229104158,163.73322158306837,164.04675616603345,right,0.3065162500133738,None,demo,001,2025-01-26_14h53.57.070,contrast_sensitivity,2024.2.4,None,2025-01-26 14h54.03.030954 -0500,
1.0,1,0.05,142,2,2,right,0.23875733301974833,None,2,2,142,48,164.0557719579665,,,,164.04880087496713,164.64478704100475,164.89717695803847,right,0.23875733301974833,None,demo,001,2025-01-26_14h53.57.070,contrast_sensitivity,2024.2.4,None,2025-01-26 14h54.03.030954 -0500,
0.001,1,0.05,143,3,2,right,0.21756695897784084,None,2,3,143,45,164.90475579106715,,,,164.8998755000066,165.49494895804673,165.71782750007696,right,0.21756695897784084,None,demo,001,2025-01-26_14h53.57.070,contrast_sensitivity,2024.2.4,None,2025-01-26 14h54.03.030954 -0500,
0.1,1,0.025,144,4,2,right,0.3452419579261914,None,2,4,144,61,165.72820262506139,,,,165.71965916606132,166.31627695797943,166.6636774580693,right,0.3452419579261914,None,demo,001,2025-01-26_14h53.57.070,contrast_sensitivity,2024.2.4,None,2025-01-26 14h54.03.030954 -0500,
1e-09,-1,0.05,145,5,2,right,0.632783958921209,None,2,5,145,49,166.67170970805455,,,,166.66573374997824,167.26170991605613,167.89729520806577,right,0.632783958921209,None,demo,001,2025-01-26_14h53.57.070,contrast_sensitivity,2024.2.4,None,2025-01-26 14h54.03.030954 -0500,
1e-07,1,0.4,146,6,2,right,0.7646200419403613,None,2,6,146,1,167.90554295806214,,,,167.89915608300362,168.49484637507703,169.26387174997944,right,0.7646200419403613,None,demo,001,2025-01-26_14h53.57.070,contrast_sensitivity,2024.2.4,None,2025-01-26 14h54.03.030954 -0500,
1.0,-1,0.025,147,7,2,left,0.2456646249629557,None,2,7,147,69,169.272552874987,,,,169.26597508299164,169.86176966608036,170.11212345806416,left,0.2456646249629557,None,demo,001,2025-01-26_14h53.57.070,contrast_sensitivity,2024.2.4,None,2025-01-26 14h54.03.030954 -0500,
1e-05,-1,0.025,148,8,2,left,0.7100084170233458,None,2,8,148,65,170.11750641604885,,,,170.1137103330111,170.71554891602136,171.43035533302464,left,0.7100084170233458,None,demo,001,2025-01-26_14h53.57.070,contrast_sensitivity,2024.2.4,None,2025-01-26 14h54.03.030954 -0500,
0.1,1,0.4,149,9,2,right,0.17614087497349828,None,2,9,149,5,171.43908354104497,,,,171.43251145805698,172.0283157080412,172.2132950410014,right,0.17614087497349828,None,demo,001,2025-01-26_14h53.57.070,contrast_sensitivity,2024.2.4,None,2025-01-26 14h54.03.030954 -0500,
1.0,-1,0.05,150,10,2,left,0.36330991610884666,None,2,10,150,55,172.22179716604296,,,,172.21527387504466,172.81710383307654,173.1845427909866,left,0.36330991610884666,None,demo,001,2025-01-26_14h53.57.070,contrast_sensitivity,2024.2.4,None,2025-01-26 14h54.03.030954 -0500,
0.01,1,0.2,151,11,2,right,0.6205716669792309,None,2,11,151,18,173.19472512498032,,,,173.18642741604708,173.78277441603132,174.4138269580435,right,0.6205716669792309,None,demo,001,2025-01-26_14h53.57.070,contrast_sensitivity,2024.2.4,None,2025-01-26 14h54.03.030954 -0500,
0.1,1,0.2,152,12,2,right,0.45682370907161385,None,2,12,152,19,174.4225340000121,,,,174.41598437505309,175.01150470797438,175.48070079099853,right,0.45682370907161385,None,demo,001,2025-01-26_14h53.57.070,contrast_sensitivity,2024.2.4,None,2025-01-26 14h54.03.030954 -0500,
1e-05,-1,0.2,153,13,2,left,0.2992177909472957,None,2,13,153,23,175.4892747909762,,,,175.48259908298496,176.07813141599763,176.38000137498602,left,0.2992177909472957,None,demo,001,2025-01-26_14h53.57.070,contrast_sensitivity,2024.2.4,None,2025-01-26 14h54.03.030954 -0500,
0.1,-1,0.05,154,14,2,left,0.32387870794627815,None,2,14,154,54,176.38630945805926,,,,176.38179445802234,176.97834937507287,177.31235837505665,left,0.32387870794627815,None,demo,001,2025-01-26_14h53.57.070,contrast_sensitivity,2024.2.4,None,2025-01-26 14h54.03.030954 -0500,
1e-05,1,0.025,155,15,2,left,0.514122125110589,None,2,15,155,58,177.31758562498726,,,,177.31368012505118,177.90016329102218,178.41747408302035,left,0.514122125110589,None,demo,001,2025-01-26_14h53.57.070,contrast_sensitivity,2024.2.4,None,2025-01-26 14h54.03.030954 -0500,
1e-05,1,0.05,156,16,2,right,0.5937033749651164,None,2,16,156,44,178.4280318330275,,,,178.4196996659739,179.0115559999831,179.61372566607315,right,0.5937033749651164,None,demo,001,2025-01-26_14h53.57.070,contrast_sensitivity,2024.2.4,None,2025-01-26 14h54.03.030954 -0500,
0.1,1,0.05,157,17,2,right,1.8721932909684256,None,2,17,157,47,179.62230412499048,,,,179.61576991598122,180.21194312500302,182.0966770000523,right,1.8721932909684256,None,demo,001,2025-01-26_14h53.57.070,contrast_sensitivity,2024.2.4,None,2025-01-26 14h54.03.030954 -0500,
0.01,-1,0.1,158,18,2,left,0.6272659589303657,None,2,18,158,39,182.10585875005927,,,,182.09874145803042,182.69493879098445,183.32994966604747,left,0.6272659589303657,None,demo,001,2025-01-26_14h53.57.070,contrast_sensitivity,2024.2.4,None,2025-01-26 14h54.03.030954 -0500,
1.0,1,0.1,159,19,2,right,0.5148366659414023,None,2,19,159,34,183.338616166031,,,,183.3319546249695,183.9281143330736,184.4465026659891,right,0.5148366659414023,None,demo,001,2025-01-26_14h53.57.070,contrast_sensitivity,2024.2.4,None,2025-01-26 14h54.03.030954 -0500,
0.1,-1,0.025,160,20,2,right,0.9383002079557627,None,2,20,160,68,184.45339833304752,,,,184.44828370807227,185.04474941606168,185.99676820798777,right,0.9383002079557627,None,demo,001,2025-01-26_14h53.57.070,contrast_sensitivity,2024.2.4,None,2025-01-26 14h54.03.030954 -0500,
0.001,-1,0.1,161,21,2,left,0.6133840419352055,None,2,21,161,38,186.00578775000758,,,,185.9988406660268,186.59483020799235,187.21358783298638,left,0.6133840419352055,None,demo,001,2025-01-26_14h53.57.070,contrast_sensitivity,2024.2.4,None,2025-01-26 14h54.03.030954 -0500,
1e-07,1,0.05,162,22,2,left,1.162387999938801,None,2,22,162,43,187.22226679103915,,,,187.21546729106922,187.81164333305787,188.98049433296546,left,1.162387999938801,None,demo,001,2025-01-26_14h53.57.070,contrast_sensitivity,2024.2.4,None,2025-01-26 14h54.03.030954 -0500,
0.1,-1,0.2,163,23,2,left,0.7403253340162337,None,2,23,163,26,188.9890005410416,,,,188.98242208303418,189.57865741604473,190.33065404102672,left,0.7403253340162337,None,demo,001,2025-01-26_14h53.57.070,contrast_sensitivity,2024.2.4,None,2025-01-26 14h54.03.030954 -0500,
0.01,1,0.05,164,24,2,left,0.5515307909809053,None,2,24,164,46,190.3397109999787,,,,190.3327919159783,190.92845270805992,191.48379191604909,left,0.5515307909809053,None,demo,001,2025-01-26_14h53.57.070,contrast_sensitivity,2024.2.4,None,2025-01-26 14h54.03.030954 -0500,
1e-05,1,0.4,165,25,2,right,0.5727291249204427,None,2,25,165,2,191.4937560830731,,,,191.48580345802475,192.07823270803783,192.6641573329689,right,0.5727291249204427,None,demo,001,2025-01-26_14h53.57.070,contrast_sensitivity,2024.2.4,None,2025-01-26 14h54.03.030954 -0500,
0.001,1,0.1,166,26,2,left,0.5094162910245359,None,2,26,166,31,192.67270366603043,,,,192.66603783296887,193.26151404099073,193.78048149996903,left,0.5094162910245359,None,demo,001,2025-01-26_14h53.57.070,contrast_sensitivity,2024.2.4,None,2025-01-26 14h54.03.030954 -0500,
0.01,1,0.4,167,27,2,left,0.8187700830167159,None,2,27,167,4,193.79488945798948,,,,193.78220687503926,194.37813375005499,195.20106879097875,left,0.8187700830167159,None,demo,001,2025-01-26_14h53.57.070,contrast_sensitivity,2024.2.4,None,2025-01-26 14h54.03.030954 -0500,
1e-07,1,0.2,168,28,2,left,0.8123082090169191,None,2,28,168,15,195.21137287502643,,,,195.2032132910099,195.79954166605603,196.61689716600813,left,0.8123082090169191,None,demo,001,2025-01-26_14h53.57.070,contrast_sensitivity,2024.2.4,None,2025-01-26 14h54.03.030954 -0500,
1e-05,-1,0.4,169,29,2,left,0.6539826670195907,None,2,29,169,9,196.62821175006684,,,,196.61886404105462,197.2288206659723,197.8957459999947,left,0.6539826670195907,None,demo,001,2025-01-26_14h53.57.070,contrast_sensitivity,2024.2.4,None,2025-01-26 14h54.03.030954 -0500,
0.01,-1,0.2,170,30,2,left,1.1490447499090806,None,2,30,170,25,197.90188729099464,,,,197.89699216606095,198.4827667500358,199.63540558307432,left,1.1490447499090806,None,demo,001,2025-01-26_14h53.57.070,contrast_sensitivity,2024.2.4,None,2025-01-26 14h54.03.030954 -0500,
1e-05,1,0.2,171,31,2,right,0.9926087919156998,None,2,31,171,16,199.64364074997138,,,,199.6376237910008,200.23228750005364,201.23080354102422,right,0.9926087919156998,None,demo,001,2025-01-26_14h53.57.070,contrast_sensitivity,2024.2.4,None,2025-01-26 14h54.03.030954 -0500,
1.0,1,0.025,172,32,2,right,0.5386828749906272,None,2,32,172,62,201.24486695800442,,,,201.23269037506543,201.82801050005946,202.3810132080689,right,0.5386828749906272,None,demo,001,2025-01-26_14h53.57.070,contrast_sensitivity,2024.2.4,None,2025-01-26 14h54.03.030954 -0500,
1e-05,-1,0.1,173,33,2,right,0.7573219999903813,None,2,33,173,37,202.3892803749768,,,,202.3828330830438,202.97834820800927,203.74693570798263,right,0.7573219999903813,None,demo,001,2025-01-26_14h53.57.070,contrast_sensitivity,2024.2.4,None,2025-01-26 14h54.03.030954 -0500,
1e-07,-1,0.025,174,34,2,left,0.7257832920877263,None,2,34,174,64,203.75555775000248,,,,203.74892337503843,204.34401404100936,205.08034779096488,left,0.7257832920877263,None,demo,001,2025-01-26_14h53.57.070,contrast_sensitivity,2024.2.4,None,2025-01-26 14h54.03.030954 -0500,
1e-09,1,0.1,175,35,2,right,0.8333034589886665,None,2,35,175,28,205.0886440409813,,,,205.08223762502894,205.6782983330777,206.51415166608058,right,0.8333034589886665,None,demo,001,2025-01-26_14h53.57.070,contrast_sensitivity,2024.2.4,None,2025-01-26 14h54.03.030954 -0500,
1e-09,-1,0.2,176,36,2,right,0.8869150839745998,None,2,36,176,21,206.52240962500218,,,,206.51608187507372,207.11163716600277,208.01361908297986,right,0.8869150839745998,None,demo,001,2025-01-26_14h53.57.070,contrast_sensitivity,2024.2.4,None,2025-01-26 14h54.03.030954 -0500,
0.1,1,0.1,177,37,2,right,0.5760725419968367,None,2,37,177,33,208.0284985830076,,,,208.01547500002198,208.61150287499186,209.19742108299397,right,0.5760725419968367,None,demo,001,2025-01-26_14h53.57.070,contrast_sensitivity,2024.2.4,None,2025-01-26 14h54.03.030954 -0500,
0.001,-1,0.4,178,38,2,right,0.8817213750444353,None,2,38,178,10,209.20506937499158,,,,209.19962462503463,209.79483124997932,210.6813661659835,right,0.8817213750444353,None,demo,001,2025-01-26_14h53.57.070,contrast_sensitivity,2024.2.4,None,2025-01-26 14h54.03.030954 -0500,
1e-09,1,0.2,179,39,2,right,0.9442564590135589,None,2,39,179,14,210.68979133304674,,,,210.68322358303703,211.2772651250707,212.23044766602106,right,0.9442564590135589,None,demo,001,2025-01-26_14h53.57.070,contrast_sensitivity,2024.2.4,None,2025-01-26 14h54.03.030954 -0500,
1.0,-1,0.1,180,40,2,left,0.5861260830424726,None,2,40,180,41,212.23876179102808,,,,212.2323512500152,212.82834370806813,213.41811595798936,left,0.5861260830424726,None,demo,001,2025-01-26_14h53.57.070,contrast_sensitivity,2024.2.4,None,2025-01-26 14h54.03.030954 -0500,
0.1,-1,0.1,181,41,2,left,0.6287253339542076,None,2,41,181,40,213.4281571659958,,,,213.41997187503148,214.01579520804808,214.64806875004433,left,0.6287253339542076,None,demo,001,2025-01-26_14h53.57.070,contrast_sensitivity,2024.2.4,None,2025-01-26 14h54.03.030954 -0500,
1e-09,-1,0.4,182,42,2,left,0.6384241670602933,None,2,42,182,7,214.65658812504262,,,,214.64987320802175,215.2449474580353,215.89750700001605,left,0.6384241670602933,None,demo,001,2025-01-26_14h53.57.070,contrast_sensitivity,2024.2.4,None,2025-01-26 14h54.03.030954 -0500,
0.001,1,0.4,183,43,2,left,0.8164505830500275,None,2,43,183,3,215.91165708296467,,,,215.89930458297022,216.49493512499612,217.31423920800444,left,0.8164505830500275,None,demo,001,2025-01-26_14h53.57.070,contrast_sensitivity,2024.2.4,None,2025-01-26 14h54.03.030954 -0500,
1e-09,-1,0.025,184,44,2,left,1.0787680419161916,None,2,44,184,63,217.3207751250593,,,,217.31572720804252,217.91170608298853,218.99742483301088,left,1.0787680419161916,None,demo,001,2025-01-26_14h53.57.070,contrast_sensitivity,2024.2.4,None,2025-01-26 14h54.03.030954 -0500,
1e-05,1,0.1,185,45,2,left,0.8844072920037434,None,2,45,185,30,219.00566245801747,,,,218.9993665830698,219.5948912909953,220.48441283300053,left,0.8844072920037434,None,demo,001,2025-01-26_14h53.57.070,contrast_sensitivity,2024.2.4,None,2025-01-26 14h54.03.030954 -0500,
0.001,-1,0.05,186,46,2,left,0.9853096250444651,None,2,46,186,52,220.4946743750479,,,,220.48664658307098,221.08296749996953,222.08140116604045,left,0.9853096250444651,None,demo,001,2025-01-26_14h53.57.070,contrast_sensitivity,2024.2.4,None,2025-01-26 14h54.03.030954 -0500,
0.01,-1,0.4,187,47,2,left,0.8869668749393895,None,2,47,187,11,222.0899390410632,,,,222.08412808307912,222.67829862504732,223.56802750006318,left,0.8869668749393895,None,demo,001,2025-01-26_14h53.57.070,contrast_sensitivity,2024.2.4,None,2025-01-26 14h54.03.030954 -0500,
1e-09,1,0.025,188,48,2,left,0.7146451250882819,None,2,48,188,56,223.57828400004655,,,,223.5699444160564,224.16561987507157,224.8843733330723,left,0.7146451250882819,None,demo,001,2025-01-26_14h53.57.070,contrast_sensitivity,2024.2.4,None,2025-01-26 14h54.03.030954 -0500,
1.0,1,0.4,189,49,2,right,0.31979079195298254,None,2,49,189,6,224.8946826250758,,,,224.8865661660675,225.48149445804302,225.81383916607592,right,0.31979079195298254,None,demo,001,2025-01-26_14h53.57.070,contrast_sensitivity,2024.2.4,None,2025-01-26 14h54.03.030954 -0500,
0.001,1,0.025,190,50,2,right,0.6723696250701323,None,2,50,190,59,225.8222579159774,,,,225.81572170800064,226.4118080000626,227.0975147910649,right,0.6723696250701323,None,demo,001,2025-01-26_14h53.57.070,contrast_sensitivity,2024.2.4,None,2025-01-26 14h54.03.030954 -0500,
0.001,-1,0.025,191,51,2,right,0.7171114579541609,None,2,51,191,66,227.10540550004225,,,,227.09951262502,227.69498866598587,228.43190416600555,right,0.7171114579541609,None,demo,001,2025-01-26_14h53.57.070,contrast_sensitivity,2024.2.4,None,2025-01-26 14h54.03.030954 -0500,
1e-07,1,0.1,192,52,2,right,0.18685504200402647,None,2,52,192,29,228.44477262499277,,,,228.43422358296812,229.02826100005768,229.21797470806632,right,0.18685504200402647,None,demo,001,2025-01-26_14h53.57.070,contrast_sensitivity,2024.2.4,None,2025-01-26 14h54.03.030954 -0500,
1e-09,1,0.05,193,53,2,left,0.6210178750334308,None,2,53,193,42,229.22802829102147,,,,229.22019224998076,229.81610908301082,230.4468462910736,left,0.6210178750334308,None,demo,001,2025-01-26_14h53.57.070,contrast_sensitivity,2024.2.4,None,2025-01-26 14h54.03.030954 -0500,
1e-07,1,0.025,194,54,2,left,0.7002058329526335,None,2,54,194,57,230.45512091601267,,,,230.44866424996872,231.0448462080676,231.75077350006904,left,0.7002058329526335,None,demo,001,2025-01-26_14h53.57.070,contrast_sensitivity,2024.2.4,None,2025-01-26 14h54.03.030954 -0500,
0.1,-1,0.4,195,55,2,left,0.3813573750667274,None,2,55,195,12,231.76119091606233,,,,231.75257766607683,232.36170504102483,232.74768495804165,left,0.3813573750667274,None,demo,001,2025-01-26_14h53.57.070,contrast_sensitivity,2024.2.4,None,2025-01-26 14h54.03.030954 -0500,
1e-05,-1,0.05,196,56,2,left,0.7051908330759034,None,2,56,196,51,232.7561425829772,,,,232.7495504580438,233.34582379099447,234.06360541598406,left,0.7051908330759034,None,demo,001,2025-01-26_14h53.57.070,contrast_sensitivity,2024.2.4,None,2025-01-26 14h54.03.030954 -0500,
1.0,-1,0.2,197,57,2,left,0.39998820796608925,None,2,57,197,27,234.0718797079753,,,,234.06557062501088,234.67891858296935,235.084282582975,left,0.39998820796608925,None,demo,001,2025-01-26_14h53.57.070,contrast_sensitivity,2024.2.4,None,2025-01-26 14h54.03.030954 -0500,
1e-07,-1,0.4,198,58,2,right,0.4520519160432741,None,2,58,198,8,235.09486454096623,,,,235.08628487505484,235.682957458077,236.14731545804534,right,0.4520519160432741,None,demo,001,2025-01-26_14h53.57.070,contrast_sensitivity,2024.2.4,None,2025-01-26 14h54.03.030954 -0500,
1.0,-1,0.4,199,59,2,left,0.4390704999677837,None,2,59,199,13,236.1562614160357,,,,236.14955412503332,236.7448830830399,237.1989522500662,left,0.4390704999677837,None,demo,001,2025-01-26_14h53.57.070,contrast_sensitivity,2024.2.4,None,2025-01-26 14h54.03.030954 -0500,
1e-07,-1,0.2,200,60,2,left,0.6821105839917436,None,2,60,200,22,237.2115399580216,,,,237.20059045800008,237.79482712503523,238.48004008305725,left,0.6821105839917436,None,demo,001,2025-01-26_14h53.57.070,contrast_sensitivity,2024.2.4,None,2025-01-26 14h54.03.030954 -0500,
0.01,-1,0.025,201,61,2,left,0.5545879160054028,None,2,61,201,67,238.48508837504778,,,,238.48128920805175,239.07825654104818,239.63433425000403,left,0.5545879160054028,None,demo,001,2025-01-26_14h53.57.070,contrast_sensitivity,2024.2.4,None,2025-01-26 14h54.03.030954 -0500,
0.001,-1,0.2,202,62,2,left,0.48840337502770126,None,2,62,202,24,239.64483250002377,,,,239.63640141603537,240.23261358297896,240.72997162502725,left,0.48840337502770126,None,demo,001,2025-01-26_14h53.57.070,contrast_sensitivity,2024.2.4,None,2025-01-26 14h54.03.030954 -0500,
0.01,-1,0.05,203,63,2,left,0.521434333990328,None,2,63,203,53,240.73894133302383,,,,240.73203195806127,241.3273920409847,241.85157616599463,left,0.521434333990328,None,demo,001,2025-01-26_14h53.57.070,contrast_sensitivity,2024.2.4,None,2025-01-26 14h54.03.030954 -0500,
0.001,1,0.2,204,64,2,right,1.0118127079913393,None,2,64,204,17,241.86145741597284,,,,241.853467790992,242.45000291604083,243.47119712503627,right,1.0118127079913393,None,demo,001,2025-01-26_14h53.57.070,contrast_sensitivity,2024.2.4,None,2025-01-26 14h54.03.030954 -0500,
0.01,1,0.025,205,65,2,right,0.9059353339252993,None,2,65,205,60,243.47848604107276,,,,243.47226895799395,244.06684099999256,244.98010704107583,right,0.9059353339252993,None,demo,001,2025-01-26_14h53.57.070,contrast_sensitivity,2024.2.4,None,2025-01-26 14h54.03.030954 -0500,
1e-09,-1,0.1,206,66,2,left,0.8723284589359537,None,2,66,206,35,244.98857875005342,,,,244.98217091604602,245.5953943330096,246.4806143330643,left,0.8723284589359537,None,demo,001,2025-01-26_14h53.57.070,contrast_sensitivity,2024.2.4,None,2025-01-26 14h54.03.030954 -0500,
0.01,1,0.1,207,67,2,left,0.5594142089830711,None,2,67,207,32,246.4891384160146,,,,246.4825500000734,247.07841320801526,247.64727487496566,left,0.5594142089830711,None,demo,001,2025-01-26_14h53.57.070,contrast_sensitivity,2024.2.4,None,2025-01-26 14h54.03.030954 -0500,
1e-09,1,0.4,208,68,2,left,0.6647947919555008,None,2,68,208,0,247.6559351250762,,,,247.64948845806066,248.24488812498748,248.913675333024,left,0.6647947919555008,None,demo,001,2025-01-26_14h53.57.070,contrast_sensitivity,2024.2.4,None,2025-01-26 14h54.03.030954 -0500,
1e-07,-1,0.05,209,69,2,left,0.680248084012419,None,2,69,209,50,248.92259920807555,,,,248.91570570797194,249.51144629099872,250.1973522079643,left,0.680248084012419,None,demo,001,2025-01-26_14h53.57.070,contrast_sensitivity,2024.2.4,None,2025-01-26 14h54.03.030954 -0500,
0.01,-1,0.1,210,0,3,right,1.5860809170408174,None,3,0,210,39,250.20594287500717,,,,250.1994746660348,250.7948519580532,252.38405379105825,right,1.5860809170408174,None,demo,001,2025-01-26_14h53.57.070,contrast_sensitivity,2024.2.4,None,2025-01-26 14h54.03.030954 -0500,
0.01,-1,0.05,211,1,3,left,0.9351357920095325,None,3,1,211,53,252.39477029105183,,,,252.38572587503586,252.9824248329969,253.93067258305382,left,0.9351357920095325,None,demo,001,2025-01-26_14h53.57.070,contrast_sensitivity,2024.2.4,None,2025-01-26 14h54.03.030954 -0500,
1e-07,1,0.1,212,2,3,left,0.8282585829729214,None,3,2,212,29,253.93906541599426,,,,253.93262262502685,254.52832866599783,255.3638514999766,left,0.8282585829729214,None,demo,001,2025-01-26_14h53.57.070,contrast_sensitivity,2024.2.4,None,2025-01-26 14h54.03.030954 -0500,
0.001,1,0.4,213,3,3,left,0.8128749170573428,None,3,3,213,3,255.3726350000361,,,,255.3658477080753,255.96174879104365,256.7802681659814,left,0.8128749170573428,None,demo,001,2025-01-26_14h53.57.070,contrast_sensitivity,2024.2.4,None,2025-01-26 14h54.03.030954 -0500,
1e-07,-1,0.2,214,4,3,left,0.8414408749667928,None,3,4,214,22,256.7880468330113,,,,256.78231925005093,257.3950527079869,258.247303207987,left,0.8414408749667928,None,demo,001,2025-01-26_14h53.57.070,contrast_sensitivity,2024.2.4,None,2025-01-26 14h54.03.030954 -0500,
0.01,1,0.4,215,5,3,right,0.6725666669663042,None,3,5,215,4,258.25579512503464,,,,258.249266083003,258.844853250077,259.53016462503,right,0.6725666669663042,None,demo,001,2025-01-26_14h53.57.070,contrast_sensitivity,2024.2.4,None,2025-01-26 14h54.03.030954 -0500,
1e-09,1,0.05,216,6,3,right,1.013161625014618,None,3,6,216,42,259.53890545805916,,,,259.5321240000194,260.1282581660198,261.14746175007895,right,1.013161625014618,None,demo,001,2025-01-26_14h53.57.070,contrast_sensitivity,2024.2.4,None,2025-01-26 14h54.03.030954 -0500,
0.1,-1,0.4,217,7,3,left,0.5516502920072526,None,3,7,217,12,261.15567574999295,,,,261.149505041074,261.74471708305646,262.300114957965,left,0.5516502920072526,None,demo,001,2025-01-26_14h53.57.070,contrast_sensitivity,2024.2.4,None,2025-01-26 14h54.03.030954 -0500,
1e-09,1,0.4,218,8,3,left,0.7635310420300812,None,3,8,218,0,262.3113954580622,,,,262.30207329103723,262.8948490830371,263.6642844580347,left,0.7635310420300812,None,demo,001,2025-01-26_14h53.57.070,contrast_sensitivity,2024.2.4,None,2025-01-26 14h54.03.030954 -0500,
0.01,-1,0.2,219,9,3,left,0.8497723749605939,None,3,9,219,25,263.672496000072,,,,263.6665366659872,264.26155487506185,265.1140261250548,left,0.8497723749605939,None,demo,001,2025-01-26_14h53.57.070,contrast_sensitivity,2024.2.4,None,2025-01-26 14h54.03.030954 -0500,
1.0,-1,0.4,220,10,3,left,0.44167445797938854,None,3,10,220,13,265.1224624160677,,,,265.1160015000496,265.71164600003976,266.1644395829644,left,0.44167445797938854,None,demo,001,2025-01-26_14h53.57.070,contrast_sensitivity,2024.2.4,None,2025-01-26 14h54.03.030954 -0500,
1.0,-1,0.025,221,11,3,left,0.4715288750594482,None,3,11,221,69,266.17855366598815,,,,266.1664175000042,266.7617281250423,267.2474869580474,left,0.4715288750594482,None,demo,001,2025-01-26_14h53.57.070,contrast_sensitivity,2024.2.4,None,2025-01-26 14h54.03.030954 -0500,
1.0,-1,0.05,222,12,3,left,0.32463554199784994,None,3,12,222,55,267.2616418329999,,,,267.2494275000645,267.84469504107255,268.1802660829853,left,0.32463554199784994,None,demo,001,2025-01-26_14h53.57.070,contrast_sensitivity,2024.2.4,None,2025-01-26 14h54.03.030954 -0500,
1.0,1,0.025,223,13,3,right,0.4178270000265911,None,3,13,223,62,268.1887977500446,,,,268.18223662499804,268.7783833750291,269.21454554097727,right,0.4178270000265911,None,demo,001,2025-01-26_14h53.57.070,contrast_sensitivity,2024.2.4,None,2025-01-26 14h54.03.030954 -0500,
0.001,1,0.05,224,14,3,right,0.5142804579809308,None,3,14,224,45,269.22893149999436,,,,269.21653558302205,269.81095112499315,270.3301806249656,right,0.5142804579809308,None,demo,001,2025-01-26_14h53.57.070,contrast_sensitivity,2024.2.4,None,2025-01-26 14h54.03.030954 -0500,
0.1,1,0.2,225,15,3,right,0.1816185829229653,None,3,15,225,19,270.3391772500472,,,,270.332254750072,270.928512625047,271.11416700005066,right,0.1816185829229653,None,demo,001,2025-01-26_14h53.57.070,contrast_sensitivity,2024.2.4,None,2025-01-26 14h54.03.030954 -0500,
0.001,-1,0.05,226,16,3,right,0.5315777909709141,None,3,16,226,52,271.1224181660218,,,,271.11610250000376,271.71157854096964,272.2467907910468,right,0.5315777909709141,None,demo,001,2025-01-26_14h53.57.070,contrast_sensitivity,2024.2.4,None,2025-01-26 14h54.03.030954 -0500,
1.0,1,0.1,227,17,3,right,0.20178250002209097,None,3,17,227,34,272.25539616600145,,,,272.248772416031,272.8443596250145,273.05038787506055,right,0.20178250002209097,None,demo,001,2025-01-26_14h53.57.070,contrast_sensitivity,2024.2.4,None,2025-01-26 14h54.03.030954 -0500,
0.001,1,0.1,228,18,3,right,0.3018629999132827,None,3,18,228,31,273.0612095000688,,,,273.05238333297893,273.64525712502655,273.95031691598706,right,0.3018629999132827,None,demo,001,2025-01-26_14h53.57.070,contrast_sensitivity,2024.2.4,None,2025-01-26 14h54.03.030954 -0500,
1e-05,-1,0.025,229,19,3,right,0.4292046671034768,None,3,19,229,65,273.9613841660321,,,,273.952517000027,274.5620241659926,274.99613375007175,right,0.4292046671034768,None,demo,001,2025-01-26_14h53.57.070,contrast_sensitivity,2024.2.4,None,2025-01-26 14h54.03.030954 -0500,
0.1,1,0.1,230,20,3,right,0.09225616697221994,None,3,20,230,33,275.0022153330501,,,,274.9977023330284,275.5949793329928,275.6967457080027,right,0.09225616697221994,None,demo,001,2025-01-26_14h53.57.070,contrast_sensitivity,2024.2.4,None,2025-01-26 14h54.03.030954 -0500,
1e-05,1,0.2,231,21,3,right,0.5292380839819089,None,3,21,231,16,275.7047540410422,,,,275.69868975004647,276.29494300007354,276.8301165830344,right,0.5292380839819089,None,demo,001,2025-01-26_14h53.57.070,contrast_sensitivity,2024.2.4,None,2025-01-26 14h54.03.030954 -0500,
1.0,1,0.4,232,22,3,right,0.21171658299863338,None,3,22,232,6,276.83682929107454,,,,276.8321959580062,277.4284037910402,277.64787079102825,right,0.21171658299863338,None,demo,001,2025-01-26_14h53.57.070,contrast_sensitivity,2024.2.4,None,2025-01-26 14h54.03.030954 -0500,
1e-09,-1,0.025,233,23,3,right,0.33712783397641033,None,3,23,233,63,277.65571662504226,,,,277.6500464580022,278.2448757500388,278.5836956250714,right,0.33712783397641033,None,demo,001,2025-01-26_14h53.57.070,contrast_sensitivity,2024.2.4,None,2025-01-26 14h54.03.030954 -0500,
1e-09,1,0.2,234,24,3,right,1.4667617499362677,None,3,24,234,14,278.59477120800875,,,,278.5856397909811,279.18123279104475,280.6508633750491,right,1.4667617499362677,None,demo,001,2025-01-26_14h53.57.070,contrast_sensitivity,2024.2.4,None,2025-01-26 14h54.03.030954 -0500,
1.0,-1,0.1,235,25,3,left,0.3310976669890806,None,3,25,235,41,280.66174070804846,,,,280.65275016601663,281.2448930409737,281.5809579580091,left,0.3310976669890806,None,demo,001,2025-01-26_14h53.57.070,contrast_sensitivity,2024.2.4,None,2025-01-26 14h54.03.030954 -0500,
1e-05,-1,0.05,236,26,3,right,0.7252534159924835,None,3,26,236,51,281.5893765829969,,,,281.5828146249987,282.17866608302575,282.9141311660642,right,0.7252534159924835,None,demo,001,2025-01-26_14h53.57.070,contrast_sensitivity,2024.2.4,None,2025-01-26 14h54.03.030954 -0500,
1.0,-1,0.2,237,27,3,left,0.2722874169703573,None,3,27,237,27,282.92236125003546,,,,282.91594950004946,283.51159383298364,283.7977008330636,left,0.2722874169703573,None,demo,001,2025-01-26_14h53.57.070,contrast_sensitivity,2024.2.4,None,2025-01-26 14h54.03.030954 -0500,
0.001,1,0.2,238,28,3,right,0.22107204096391797,None,3,28,238,17,283.80642454104964,,,,283.79978424997535,284.3948081660783,284.61767041601706,right,0.22107204096391797,None,demo,001,2025-01-26_14h53.57.070,contrast_sensitivity,2024.2.4,None,2025-01-26 14h54.03.030954 -0500,
1e-05,-1,0.2,239,29,3,right,0.4518145420588553,None,3,29,239,23,284.6282544580754,,,,284.6196392910788,285.21604254096746,285.67979266599286,right,0.4518145420588553,None,demo,001,2025-01-26_14h53.57.070,contrast_sensitivity,2024.2.4,None,2025-01-26 14h54.03.030954 -0500,
1e-05,1,0.05,240,30,3,right,0.38175529101863503,None,3,30,240,44,285.68626812507864,,,,285.68137191596907,286.2951076660538,286.6813351659803,right,0.38175529101863503,None,demo,001,2025-01-26_14h53.57.070,contrast_sensitivity,2024.2.4,None,2025-01-26 14h54.03.030954 -0500,
1e-09,-1,0.4,241,31,3,left,0.35801800002809614,None,3,31,241,7,286.6899259580532,,,,286.6832343749702,287.29572666599415,287.66430983296596,left,0.35801800002809614,None,demo,001,2025-01-26_14h53.57.070,contrast_sensitivity,2024.2.4,None,2025-01-26 14h54.03.030954 -0500,
0.01,-1,0.025,242,32,3,left,0.27316679095383734,None,3,32,242,67,287.6728010410443,,,,287.66652720805723,288.2616626250092,288.5474931660574,left,0.27316679095383734,None,demo,001,2025-01-26_14h53.57.070,contrast_sensitivity,2024.2.4,None,2025-01-26 14h54.03.030954 -0500,
0.1,-1,0.1,243,33,3,left,0.19183737493585795,None,3,33,243,40,288.55593341600616,,,,288.549415791058,289.14496087504085,289.3466015000595,left,0.19183737493585795,None,demo,001,2025-01-26_14h53.57.070,contrast_sensitivity,2024.2.4,None,2025-01-26 14h54.03.030954 -0500,
1e-07,1,0.2,244,34,3,left,0.5157430830877274,None,3,34,244,15,289.355154082994,,,,289.3486091250088,289.9450327910017,290.4639867079677,left,0.5157430830877274,None,demo,001,2025-01-26_14h53.57.070,contrast_sensitivity,2024.2.4,None,2025-01-26 14h54.03.030954 -0500,
1.0,1,0.2,245,35,3,right,0.19615137507207692,None,3,35,245,20,290.4730398330139,,,,290.4660038750153,291.06169679097366,291.2636692500673,right,0.19615137507207692,None,demo,001,2025-01-26_14h53.57.070,contrast_sensitivity,2024.2.4,None,2025-01-26 14h54.03.030954 -0500,
1e-09,1,0.025,246,36,3,right,0.42714800010435283,None,3,36,246,56,291.27174695802387,,,,291.2655024579726,291.8615687909769,292.29719775007106,right,0.42714800010435283,None,demo,001,2025-01-26_14h53.57.070,contrast_sensitivity,2024.2.4,None,2025-01-26 14h54.03.030954 -0500,
1e-07,-1,0.1,247,37,3,right,0.5447464170865715,None,3,37,247,36,292.30576237500645,,,,292.2991059999913,292.8949225409888,293.447353290976,right,0.5447464170865715,None,demo,001,2025-01-26_14h53.57.070,contrast_sensitivity,2024.2.4,None,2025-01-26 14h54.03.030954 -0500,
0.1,-1,0.025,248,38,3,right,0.3884665409568697,None,3,38,248,68,293.4558512910735,,,,293.44925975007936,294.0451547499979,294.4468394999858,right,0.3884665409568697,None,demo,001,2025-01-26_14h53.57.070,contrast_sensitivity,2024.2.4,None,2025-01-26 14h54.03.030954 -0500,
1e-05,1,0.1,249,39,3,left,0.29179208306595683,None,3,39,249,30,294.455941000022,,,,294.448916375055,295.0448405829957,295.34670454100706,left,0.29179208306595683,None,demo,001,2025-01-26_14h53.57.070,contrast_sensitivity,2024.2.4,None,2025-01-26 14h54.03.030954 -0500,
0.1,1,0.4,250,40,3,right,0.38081283296924084,None,3,40,250,5,295.3550111249788,,,,295.34856216597836,295.9448305000551,296.330727249966,right,0.38081283296924084,None,demo,001,2025-01-26_14h53.57.070,contrast_sensitivity,2024.2.4,None,2025-01-26 14h54.03.030954 -0500,
1e-05,-1,0.1,251,41,3,right,0.5555215000640601,None,3,41,251,37,296.3394853330683,,,,296.33274887502193,296.92804091598373,297.4976606250275,right,0.5555215000640601,None,demo,001,2025-01-26_14h53.57.070,contrast_sensitivity,2024.2.4,None,2025-01-26 14h54.03.030954 -0500,
0.001,-1,0.025,252,42,3,right,0.41106741700787097,None,3,42,252,66,297.5060959160328,,,,297.49988791602664,298.094962125062,298.51398979104124,right,0.41106741700787097,None,demo,001,2025-01-26_14h53.57.070,contrast_sensitivity,2024.2.4,None,2025-01-26 14h54.03.030954 -0500,
0.01,1,0.2,253,43,3,left,0.6047790420707315,None,3,43,253,18,298.522605166072,,,,298.5160549579887,299.1117343750084,299.7180476660142,left,0.6047790420707315,None,demo,001,2025-01-26_14h53.57.070,contrast_sensitivity,2024.2.4,None,2025-01-26 14h54.03.030954 -0500,
0.001,-1,0.2,254,44,3,right,0.2551945000886917,None,3,44,254,24,299.72815816605,,,,299.72004591603763,300.316471499973,300.58051574998535,right,0.2551945000886917,None,demo,001,2025-01-26_14h53.57.070,contrast_sensitivity,2024.2.4,None,2025-01-26 14h54.03.030954 -0500,
1e-09,1,0.1,255,45,3,right,0.4541282079881057,None,3,45,255,28,300.58810016606003,,,,300.5825113330502,301.1783605830278,301.63442908297293,right,0.4541282079881057,None,demo,001,2025-01-26_14h53.57.070,contrast_sensitivity,2024.2.4,None,2025-01-26 14h54.03.030954 -0500,
1e-07,-1,0.05,256,46,3,right,0.616310374927707,None,3,46,256,50,301.64484604098834,,,,301.6365096659865,302.2331800410757,302.85171091603115,right,0.616310374927707,None,demo,001,2025-01-26_14h53.57.070,contrast_sensitivity,2024.2.4,None,2025-01-26 14h54.03.030954 -0500,
0.1,-1,0.05,257,47,3,left,0.3085541669279337,None,3,47,257,54,302.8613664159784,,,,302.8536190830637,303.45006075000856,303.7637437080266,left,0.3085541669279337,None,demo,001,2025-01-26_14h53.57.070,contrast_sensitivity,2024.2.4,None,2025-01-26 14h54.03.030954 -0500,
0.01,1,0.05,258,48,3,right,0.4037329170387238,None,3,48,258,46,303.7718919160543,,,,303.766008666018,304.3616909580305,304.7679889580468,right,0.4037329170387238,None,demo,001,2025-01-26_14h53.57.070,contrast_sensitivity,2024.2.4,None,2025-01-26 14h54.03.030954 -0500,
1e-09,-1,0.2,259,49,3,right,0.5520864590071142,None,3,49,259,21,304.77807495801244,,,,304.77010550000705,305.366315540974,305.9287439159816,right,0.5520864590071142,None,demo,001,2025-01-26_14h53.57.070,contrast_sensitivity,2024.2.4,None,2025-01-26 14h54.03.030954 -0500,
1e-07,-1,0.4,260,50,3,right,0.45859733305405825,None,3,50,260,8,305.93403187498916,,,,305.9300717500737,306.51683437498286,306.9810226659756,right,0.45859733305405825,None,demo,001,2025-01-26_14h53.57.070,contrast_sensitivity,2024.2.4,None,2025-01-26 14h54.03.030954 -0500,
0.001,-1,0.1,261,51,3,left,0.43798033404164016,None,3,51,261,38,306.98855999996886,,,,306.98287908302154,307.57833679101896,308.03019929106813,left,0.43798033404164016,None,demo,001,2025-01-26_14h53.57.070,contrast_sensitivity,2024.2.4,None,2025-01-26 14h54.03.030954 -0500,
0.01,1,0.1,262,52,3,left,0.6570826669922099,None,3,52,262,32,308.0391853749752,,,,308.0322676660726,308.62828533304855,309.29744304099586,left,0.6570826669922099,None,demo,001,2025-01-26_14h53.57.070,contrast_sensitivity,2024.2.4,None,2025-01-26 14h54.03.030954 -0500,
1.0,1,0.05,263,53,3,right,0.3634244999848306,None,3,53,263,48,309.30667683307547,,,,309.2996405409649,309.8949157909956,310.2641070410609,right,0.3634244999848306,None,demo,001,2025-01-26_14h53.57.070,contrast_sensitivity,2024.2.4,None,2025-01-26 14h54.03.030954 -0500,
1e-07,1,0.025,264,54,3,right,0.40064487501513213,None,3,54,264,57,310.272739832988,,,,310.26594120799564,310.86159908305854,311.26736379100475,right,0.40064487501513213,None,demo,001,2025-01-26_14h53.57.070,contrast_sensitivity,2024.2.4,None,2025-01-26 14h54.03.030954 -0500,
1e-07,-1,0.025,265,55,3,right,0.6023643329972401,None,3,55,265,64,311.27821937506087,,,,311.26945479097776,311.866887332988,312.4806146250339,right,0.6023643329972401,None,demo,001,2025-01-26_14h53.57.070,contrast_sensitivity,2024.2.4,None,2025-01-26 14h54.03.030954 -0500,
1e-07,1,0.4,266,56,3,left,0.6048032919643447,None,3,56,266,1,312.4888867500704,,,,312.4824356660247,313.0774084579898,313.68421637499705,left,0.6048032919643447,None,demo,001,2025-01-26_14h53.57.070,contrast_sensitivity,2024.2.4,None,2025-01-26 14h54.03.030954 -0500,
0.1,1,0.05,267,57,3,right,0.5118701250758022,None,3,57,267,47,313.6946042079944,,,,313.6862395000644,314.28238437499385,314.7974055829691,right,0.5118701250758022,None,demo,001,2025-01-26_14h53.57.070,contrast_sensitivity,2024.2.4,None,2025-01-26 14h54.03.030954 -0500,
1e-09,-1,0.05,268,58,3,left,0.5090677080443129,None,3,58,268,49,314.80509120807983,,,,314.79944400000386,315.39513454097323,315.9148615000304,left,0.5090677080443129,None,demo,001,2025-01-26_14h53.57.070,contrast_sensitivity,2024.2.4,None,2025-01-26 14h54.03.030954 -0500,
1e-05,1,0.4,269,59,3,left,0.6013656250433996,None,3,59,269,2,315.9284742079908,,,,315.9174466250697,316.5117512079887,317.11741041601636,left,0.6013656250433996,None,demo,001,2025-01-26_14h53.57.070,contrast_sensitivity,2024.2.4,None,2025-01-26 14h54.03.030954 -0500,
1e-09,-1,0.1,270,60,3,left,0.7022913330001757,None,3,60,270,35,317.12821133306716,,,,317.1195329580223,317.7118446660461,318.4179060830502,left,0.7022913330001757,None,demo,001,2025-01-26_14h53.57.070,contrast_sensitivity,2024.2.4,None,2025-01-26 14h54.03.030954 -0500,
1e-07,1,0.05,271,61,3,right,0.21908025001175702,None,3,61,271,43,318.4280330410693,,,,318.41953145805746,319.01606629102025,319.2469111250248,right,0.21908025001175702,None,demo,001,2025-01-26_14h53.57.070,contrast_sensitivity,2024.2.4,None,2025-01-26 14h54.03.030954 -0500,
0.1,1,0.025,272,62,3,right,0.5161114999791607,None,3,62,272,61,319.2552008329658,,,,319.2487857500091,319.84500525007024,320.3645230829716,right,0.5161114999791607,None,demo,001,2025-01-26_14h53.57.070,contrast_sensitivity,2024.2.4,None,2025-01-26 14h54.03.030954 -0500,
0.01,-1,0.4,273,63,3,right,0.5884046669816598,None,3,63,273,11,320.37834891607054,,,,320.36628075002227,320.9615812910488,321.5513747910736,right,0.5884046669816598,None,demo,001,2025-01-26_14h53.57.070,contrast_sensitivity,2024.2.4,None,2025-01-26 14h54.03.030954 -0500,
0.1,-1,0.2,274,64,3,left,0.2862893749261275,None,3,64,274,26,321.56141941598617,,,,321.55327112507075,322.14973125001416,322.4471611250192,left,0.2862893749261275,None,demo,001,2025-01-26_14h53.57.070,contrast_sensitivity,2024.2.4,None,2025-01-26 14h54.03.030954 -0500,
0.001,1,0.025,275,65,3,left,0.647044665995054,None,3,65,275,59,322.4557211250067,,,,322.44912504102103,323.0450866250321,323.6971749580698,left,0.647044665995054,None,demo,001,2025-01-26_14h53.57.070,contrast_sensitivity,2024.2.4,None,2025-01-26 14h54.03.030954 -0500,
1e-05,-1,0.4,276,66,3,left,0.6659792920108885,None,3,66,276,9,323.7060404160293,,,,323.69923100003507,324.295016249991,324.9639861250762,left,0.6659792920108885,None,demo,001,2025-01-26_14h53.57.070,contrast_sensitivity,2024.2.4,None,2025-01-26 14h54.03.030954 -0500,
0.001,-1,0.4,277,67,3,right,0.49010633397847414,None,3,67,277,10,324.9727080409648,,,,324.9659139160067,325.56180920801125,326.06380750006065,right,0.49010633397847414,None,demo,001,2025-01-26_14h53.57.070,contrast_sensitivity,2024.2.4,None,2025-01-26 14h54.03.030954 -0500,
0.01,1,0.025,278,68,3,left,0.4682807920034975,None,3,68,278,60,326.0721323749749,,,,326.065756957978,326.66164395806845,327.1342362500727,left,0.4682807920034975,None,demo,001,2025-01-26_14h53.57.070,contrast_sensitivity,2024.2.4,None,2025-01-26 14h54.03.030954 -0500,
1e-05,1,0.025,279,69,3,left,0.48514033295214176,None,3,69,279,58,327.1447433329886,,,,327.1362208330538,327.7327664580662,328.230166916037,left,0.48514033295214176,None,demo,001,2025-01-26_14h53.57.070,contrast_sensitivity,2024.2.4,None,2025-01-26 14h54.03.030954 -0500,
0.01,1,0.1,280,0,4,left,0.5644860829925165,None,4,0,280,32,328.23844270803966,,,,328.23233183298726,328.8283969160402,329.39745454106014,left,0.5644860829925165,None,demo,001,2025-01-26_14h53.57.070,contrast_sensitivity,2024.2.4,None,2025-01-26 14h54.03.030954 -0500,
1.0,1,0.4,281,1,4,right,0.07094912498723716,None,4,1,281,6,329.4061864580726,,,,329.3994481660193,329.9949103749823,330.0675465000095,right,0.07094912498723716,None,demo,001,2025-01-26_14h53.57.070,contrast_sensitivity,2024.2.4,None,2025-01-26 14h54.03.030954 -0500,
1.0,-1,0.05,282,2,4,left,0.19521516596432775,None,4,2,282,55,330.0783332079882,,,,330.0696160000516,330.66663583298214,330.8676307500573,left,0.19521516596432775,None,demo,001,2025-01-26_14h53.57.070,contrast_sensitivity,2024.2.4,None,2025-01-26 14h54.03.030954 -0500,
1e-05,1,0.05,283,3,4,left,0.3574008329305798,None,4,3,283,44,330.8784399579745,,,,330.8696586659644,331.46652979101054,331.8306452080142,left,0.3574008329305798,None,demo,001,2025-01-26_14h53.57.070,contrast_sensitivity,2024.2.4,None,2025-01-26 14h54.03.030954 -0500,
1e-07,1,0.2,284,4,4,left,0.43083158403169364,None,4,4,284,15,331.8392805829644,,,,331.8325255829841,332.4283856659895,332.86448400001973,left,0.43083158403169364,None,demo,001,2025-01-26_14h53.57.070,contrast_sensitivity,2024.2.4,None,2025-01-26 14h54.03.030954 -0500,
1e-09,-1,0.025,285,5,4,left,0.5913075000280514,None,4,5,285,63,332.8721665000776,,,,332.866174625,333.4784769580001,334.0796517910203,left,0.5913075000280514,None,demo,001,2025-01-26_14h53.57.070,contrast_sensitivity,2024.2.4,None,2025-01-26 14h54.03.030954 -0500,
1.0,1,0.025,286,6,4,right,0.11230658297426999,None,4,6,286,62,334.08868333301507,,,,334.08207104098983,334.6784572909819,334.79685787507333,right,0.11230658297426999,None,demo,001,2025-01-26_14h53.57.070,contrast_sensitivity,2024.2.4,None,2025-01-26 14h54.03.030954 -0500,
1e-05,-1,0.4,287,7,4,right,1.0332575410138816,None,4,7,287,9,334.80476795800496,,,,334.7989132499788,335.3945205829805,336.43237504106946,right,1.0332575410138816,None,demo,001,2025-01-26_14h53.57.070,contrast_sensitivity,2024.2.4,None,2025-01-26 14h54.03.030954 -0500,
0.01,1,0.2,288,8,4,left,0.5210383750963956,None,4,8,288,18,336.44507662497927,,,,336.43411845806986,337.02860854100436,337.5635875000153,left,0.5210383750963956,None,demo,001,2025-01-26_14h53.57.070,contrast_sensitivity,2024.2.4,None,2025-01-26 14h54.03.030954 -0500,
1e-07,-1,0.2,289,9,4,left,0.5150855830870569,None,4,9,289,22,337.57212495803833,,,,337.565557874972,338.161612625001,338.680654915981,left,0.5150855830870569,None,demo,001,2025-01-26_14h53.57.070,contrast_sensitivity,2024.2.4,None,2025-01-26 14h54.03.030954 -0500,
0.01,-1,0.025,290,10,4,left,0.655869249952957,None,4,10,290,67,338.68846779107116,,,,338.6827154579805,339.2777590000769,339.9471940830117,left,0.655869249952957,None,demo,001,2025-01-26_14h53.57.070,contrast_sensitivity,2024.2.4,None,2025-01-26 14h54.03.030954 -0500,
1.0,-1,0.025,291,11,4,left,0.25102245807647705,None,4,11,291,69,339.95545383298304,,,,339.9493020409718,340.54457999998704,340.8011173750274,left,0.25102245807647705,None,demo,001,2025-01-26_14h53.57.070,contrast_sensitivity,2024.2.4,None,2025-01-26 14h54.03.030954 -0500,
0.01,-1,0.05,292,12,4,left,0.7191065839724615,None,4,12,292,53,340.8115125830518,,,,340.8031139160739,341.3995086660143,342.1306110000005,left,0.7191065839724615,None,demo,001,2025-01-26_14h53.57.070,contrast_sensitivity,2024.2.4,None,2025-01-26 14h54.03.030954 -0500,
0.001,1,0.025,293,13,4,right,0.5331438750727102,None,4,13,293,59,342.1393575409893,,,,342.1326852909988,342.7284167080652,343.26438395807054,right,0.5331438750727102,None,demo,001,2025-01-26_14h53.57.070,contrast_sensitivity,2024.2.4,None,2025-01-26 14h54.03.030954 -0500,
1e-09,1,0.05,294,14,4,right,0.2639889579731971,None,4,14,294,42,343.27256195805967,,,,343.2662678330671,343.86455708299764,344.1342178330524,right,0.2639889579731971,None,demo,001,2025-01-26_14h53.57.070,contrast_sensitivity,2024.2.4,None,2025-01-26 14h54.03.030954 -0500,
1e-07,-1,0.4,295,15,4,left,0.40055433299858123,None,4,15,295,8,344.1449731660541,,,,344.13603425002657,344.73296133300755,345.1477117500035,left,0.40055433299858123,None,demo,001,2025-01-26_14h53.57.070,contrast_sensitivity,2024.2.4,None,2025-01-26 14h54.03.030954 -0500,
0.01,-1,0.1,296,16,4,left,0.4316276250174269,None,4,16,296,39,345.1619453750318,,,,345.1495217080228,345.74487137503456,346.1802662500413,left,0.4316276250174269,None,demo,001,2025-01-26_14h53.57.070,contrast_sensitivity,2024.2.4,None,2025-01-26 14h54.03.030954 -0500,
1.0,1,0.05,297,17,4,right,0.2802985409507528,None,4,17,297,48,346.1880279580364,,,,346.18218512507156,346.778228375013,347.0636302080238,right,0.2802985409507528,None,demo,001,2025-01-26_14h53.57.070,contrast_sensitivity,2024.2.4,None,2025-01-26 14h54.03.030954 -0500,
1e-07,1,0.025,298,18,4,right,0.42265383398626,None,4,18,298,57,347.0722547910409,,,,347.06550316605717,347.66180187498685,348.0980453330558,right,0.42265383398626,None,demo,001,2025-01-26_14h53.57.070,contrast_sensitivity,2024.2.4,None,2025-01-26 14h54.03.030954 -0500,
1e-09,1,0.2,299,19,4,left,0.42229687504004687,None,4,19,299,14,348.1058349580271,,,,348.1001366659766,348.69516416604165,349.13066070806235,left,0.42229687504004687,None,demo,001,2025-01-26_14h53.57.070,contrast_sensitivity,2024.2.4,None,2025-01-26 14h54.03.030954 -0500,
0.001,-1,0.05,300,20,4,left,0.562203916022554,None,4,20,300,52,349.1392272079829,,,,349.13262404105626,349.72826891602017,350.2969487500377,left,0.562203916022554,None,demo,001,2025-01-26_14h53.57.070,contrast_sensitivity,2024.2.4,None,2025-01-26 14h54.03.030954 -0500,
0.1,1,0.1,301,21,4,right,0.30929908296093345,None,4,21,301,33,350.305363249965,,,,350.29880358302034,350.8953490409767,351.2146338330349,right,0.30929908296093345,None,demo,001,2025-01-26_14h53.57.070,contrast_sensitivity,2024.2.4,None,2025-01-26 14h54.03.030954 -0500,
1e-09,1,0.4,302,22,4,right,0.27778608293738216,None,4,22,302,0,351.2282917080447,,,,351.2166864160681,351.81170504097827,352.097593915998,right,0.27778608293738216,None,demo,001,2025-01-26_14h53.57.070,contrast_sensitivity,2024.2.4,None,2025-01-26 14h54.03.030954 -0500,
0.1,-1,0.2,303,23,4,left,0.2179612909676507,None,4,23,303,26,352.106085541076,,,,352.09948645799886,352.6953963750275,352.9175066250609,left,0.2179612909676507,None,demo,001,2025-01-26_14h53.57.070,contrast_sensitivity,2024.2.4,None,2025-01-26 14h54.03.030954 -0500,
1e-09,-1,0.1,304,24,4,left,0.5153334159404039,None,4,24,304,35,352.9281184159918,,,,352.9195180410752,353.5160193750635,354.0477362499805,left,0.5153334159404039,None,demo,001,2025-01-26_14h53.57.070,contrast_sensitivity,2024.2.4,None,2025-01-26 14h54.03.030954 -0500,
1e-09,-1,0.4,305,25,4,right,0.3412811659509316,None,4,25,305,7,354.06175766605884,,,,354.04967645800207,354.6450150409946,354.99676800007,right,0.3412811659509316,None,demo,001,2025-01-26_14h53.57.070,contrast_sensitivity,2024.2.4,None,2025-01-26 14h54.03.030954 -0500,
0.01,1,0.025,306,26,4,left,0.5563747918931767,None,4,26,306,60,355.00580566597637,,,,354.99885037506465,355.5949186660582,356.1641771249706,left,0.5563747918931767,None,demo,001,2025-01-26_14h53.57.070,contrast_sensitivity,2024.2.4,None,2025-01-26 14h54.03.030954 -0500,
1e-09,1,0.1,307,27,4,right,0.3428757500369102,None,4,27,307,28,356.17226037499495,,,,356.16630212496966,356.76155587506946,357.113334499998,right,0.3428757500369102,None,demo,001,2025-01-26_14h53.57.070,contrast_sensitivity,2024.2.4,None,2025-01-26 14h54.03.030954 -0500,
0.001,-1,0.1,308,28,4,left,0.5863713339203969,None,4,28,308,38,357.1218502080301,,,,357.11519362498075,357.7118378330488,358.30025800003204,left,0.5863713339203969,None,demo,001,2025-01-26_14h53.57.070,contrast_sensitivity,2024.2.4,None,2025-01-26 14h54.03.030954 -0500,
1e-07,-1,0.05,309,29,4,left,1.1360811250051484,None,4,29,309,50,358.31141883297823,,,,358.302415125072,358.8951189579675,360.0350155000342,left,1.1360811250051484,None,demo,001,2025-01-26_14h53.57.070,contrast_sensitivity,2024.2.4,None,2025-01-26 14h54.03.030954 -0500,
1e-09,-1,0.05,310,30,4,right,0.42560241592582315,None,4,30,310,49,360.04471112496685,,,,360.0368283750722,360.63363616599236,361.0640650000423,right,0.42560241592582315,None,demo,001,2025-01-26_14h53.57.070,contrast_sensitivity,2024.2.4,None,2025-01-26 14h54.03.030954 -0500,
1e-07,1,0.1,311,31,4,right,0.3383173749316484,None,4,31,311,29,361.07303695799783,,,,361.0662548330147,361.6617678750772,362.01348525006324,right,0.3383173749316484,None,demo,001,2025-01-26_14h53.57.070,contrast_sensitivity,2024.2.4,None,2025-01-26 14h54.03.030954 -0500,
1e-07,1,0.05,312,32,4,left,0.443694582907483,None,4,32,312,43,362.0224554160377,,,,362.0155026660068,362.6115480000153,363.06389962497633,left,0.443694582907483,None,demo,001,2025-01-26_14h53.57.070,contrast_sensitivity,2024.2.4,None,2025-01-26 14h54.03.030954 -0500,
0.01,-1,0.2,313,33,4,left,0.42544504103716463,None,4,33,313,25,363.07246241602115,,,,363.0658565830672,363.66167420800775,364.0975864579668,left,0.42544504103716463,None,demo,001,2025-01-26_14h53.57.070,contrast_sensitivity,2024.2.4,None,2025-01-26 14h54.03.030954 -0500,
1.0,-1,0.4,314,34,4,left,0.1518146248999983,None,4,34,314,13,364.10613779106643,,,,364.0994730410166,364.69527270807885,364.851282541058,left,0.1518146248999983,None,demo,001,2025-01-26_14h53.57.070,contrast_sensitivity,2024.2.4,None,2025-01-26 14h54.03.030954 -0500,
0.1,1,0.025,315,35,4,right,0.6795808750903234,None,4,35,315,61,364.8613934160676,,,,364.8536559579661,365.44944137497805,366.13276812504046,right,0.6795808750903234,None,demo,001,2025-01-26_14h53.57.070,contrast_sensitivity,2024.2.4,None,2025-01-26 14h54.03.030954 -0500,
1e-09,-1,0.2,316,36,4,left,0.5732990000396967,None,4,36,316,21,366.1439670830732,,,,366.134005791042,366.728688791045,367.31390308297705,left,0.5732990000396967,None,demo,001,2025-01-26_14h53.57.070,contrast_sensitivity,2024.2.4,None,2025-01-26 14h54.03.030954 -0500,
0.001,-1,0.025,317,37,4,left,0.7022658749483526,None,4,37,317,66,367.3231469159946,,,,367.3165485410718,367.9117405830184,368.6175458750222,left,0.7022658749483526,None,demo,001,2025-01-26_14h53.57.070,contrast_sensitivity,2024.2.4,None,2025-01-26 14h54.03.030954 -0500,
0.1,-1,0.025,318,38,4,left,0.8921129580121487,None,4,38,318,68,368.6281083750073,,,,368.6189097079914,369.2169449160574,370.1139001250267,left,0.8921129580121487,None,demo,001,2025-01-26_14h53.57.070,contrast_sensitivity,2024.2.4,None,2025-01-26 14h54.03.030954 -0500,
1e-05,-1,0.05,319,39,4,right,0.4771225000731647,None,4,39,319,51,370.1224935000064,,,,370.11575379106216,370.71182520803995,371.19733900006395,right,0.4771225000731647,None,demo,001,2025-01-26_14h53.57.070,contrast_sensitivity,2024.2.4,None,2025-01-26 14h54.03.030954 -0500,
0.001,1,0.2,320,40,4,left,0.7729143749456853,None,4,40,320,17,371.2061176659772,,,,371.19938720797654,371.79499837500043,372.5804965000134,left,0.7729143749456853,None,demo,001,2025-01-26_14h53.57.070,contrast_sensitivity,2024.2.4,None,2025-01-26 14h54.03.030954 -0500,
1e-09,1,0.025,321,41,4,right,0.5678178750677034,None,4,41,321,56,372.58858754101675,,,,372.5823841249803,373.1780345829902,373.7509002080187,right,0.5678178750677034,None,demo,001,2025-01-26_14h53.57.070,contrast_sensitivity,2024.2.4,None,2025-01-26 14h54.03.030954 -0500,
0.001,1,0.1,322,42,4,right,0.8340042079798877,None,4,42,322,31,373.76155150006525,,,,373.75295354099944,374.34984045801684,375.1977862910135,right,0.8340042079798877,None,demo,001,2025-01-26_14h53.57.070,contrast_sensitivity,2024.2.4,None,2025-01-26 14h54.03.030954 -0500,
0.01,-1,0.4,323,43,4,left,0.3207942909793928,None,4,43,323,11,375.21175441599917,,,,375.1997993750265,375.7949893750483,376.1306217079982,left,0.3207942909793928,None,demo,001,2025-01-26_14h53.57.070,contrast_sensitivity,2024.2.4,None,2025-01-26 14h54.03.030954 -0500,
0.01,1,0.05,324,44,4,left,0.41761420806869864,None,4,44,324,46,376.13888583297376,,,,376.1325478750514,376.7291042910656,377.1509053329937,left,0.41761420806869864,None,demo,001,2025-01-26_14h53.57.070,contrast_sensitivity,2024.2.4,None,2025-01-26 14h54.03.030954 -0500,
0.1,1,0.05,325,45,4,left,0.8506805408978835,None,4,45,325,47,377.16143908305094,,,,377.15299974998925,377.7620586659759,378.6175759580219,left,0.8506805408978835,None,demo,001,2025-01-26_14h53.57.070,contrast_sensitivity,2024.2.4,None,2025-01-26 14h54.03.030954 -0500,
1e-05,1,0.2,326,46,4,right,0.5154224580619484,None,4,46,326,16,378.6282092080219,,,,378.6197900000261,379.21430266601965,379.7477767500095,right,0.5154224580619484,None,demo,001,2025-01-26_14h53.57.070,contrast_sensitivity,2024.2.4,None,2025-01-26 14h54.03.030954 -0500,
1.0,-1,0.1,327,47,4,left,0.4177682079607621,None,4,47,327,41,379.76146825007163,,,,379.74986229103524,380.34494212502614,380.781271749991,left,0.4177682079607621,None,demo,001,2025-01-26_14h53.57.070,contrast_sensitivity,2024.2.4,None,2025-01-26 14h54.03.030954 -0500,
0.001,1,0.4,328,48,4,left,0.6905403749551624,None,4,48,328,3,380.7952164580347,,,,380.7831538330065,381.378269250039,382.0810663329903,left,0.6905403749551624,None,demo,001,2025-01-26_14h53.57.070,contrast_sensitivity,2024.2.4,None,2025-01-26 14h54.03.030954 -0500,
0.1,-1,0.1,329,49,4,left,0.2253972920589149,None,4,49,329,40,382.08962962497026,,,,382.0828907500254,382.6783257910283,382.91445366607513,left,0.2253972920589149,None,demo,001,2025-01-26_14h53.57.070,contrast_sensitivity,2024.2.4,None,2025-01-26 14h54.03.030954 -0500,
0.001,1,0.05,330,50,4,left,0.47100570797920227,None,4,50,330,45,382.9227061250713,,,,382.9165575830266,383.51163058297243,383.9845573330531,left,0.47100570797920227,None,demo,001,2025-01-26_14h53.57.070,contrast_sensitivity,2024.2.4,None,2025-01-26 14h54.03.030954 -0500,
1e-07,-1,0.1,331,51,4,right,0.24957312503829598,None,4,51,331,36,383.9947321660584,,,,383.98664104100317,384.5830390410265,384.84782445803285,right,0.24957312503829598,None,demo,001,2025-01-26_14h53.57.070,contrast_sensitivity,2024.2.4,None,2025-01-26 14h54.03.030954 -0500,
1e-05,-1,0.2,332,52,4,right,0.618647166993469,None,4,52,332,23,384.86187054100446,,,,384.8496256660437,385.44493295799475,386.06672320805956,right,0.618647166993469,None,demo,001,2025-01-26_14h53.57.070,contrast_sensitivity,2024.2.4,None,2025-01-26 14h54.03.030954 -0500,
0.01,1,0.4,333,53,4,right,0.5089431660016999,None,4,53,333,4,386.07758649997413,,,,386.0682271660771,386.66164712503087,387.180756708025,right,0.5089431660016999,None,demo,001,2025-01-26_14h53.57.070,contrast_sensitivity,2024.2.4,None,2025-01-26 14h54.03.030954 -0500,
0.001,-1,0.4,334,54,4,right,0.8761172499507666,None,4,54,334,10,387.1894169159932,,,,387.18279820797034,387.77852791605983,388.66415812505875,right,0.8761172499507666,None,demo,001,2025-01-26_14h53.57.070,contrast_sensitivity,2024.2.4,None,2025-01-26 14h54.03.030954 -0500,
1e-07,-1,0.025,335,55,4,right,0.5539647919358686,None,4,55,335,64,388.6728537080344,,,,388.6660557080759,389.2785215000622,389.8341507080477,right,0.5539647919358686,None,demo,001,2025-01-26_14h53.57.070,contrast_sensitivity,2024.2.4,None,2025-01-26 14h54.03.030954 -0500,
0.1,1,0.2,336,56,4,right,0.6554303750162944,None,4,56,336,19,389.8447449579835,,,,389.83636479103006,390.43308891600464,391.0977627079701,right,0.6554303750162944,None,demo,001,2025-01-26_14h53.57.070,contrast_sensitivity,2024.2.4,None,2025-01-26 14h54.03.030954 -0500,
0.1,-1,0.4,337,57,4,left,0.3485496250214055,None,4,57,337,12,391.1116394579876,,,,391.0999729160685,391.69494433305226,392.04745745798573,left,0.3485496250214055,None,demo,001,2025-01-26_14h53.57.070,contrast_sensitivity,2024.2.4,None,2025-01-26 14h54.03.030954 -0500,
1.0,-1,0.2,338,58,4,left,0.4455319170374423,None,4,58,338,27,392.0557460000273,,,,392.04929483297747,392.6450084580574,393.0978195000207,left,0.4455319170374423,None,demo,001,2025-01-26_14h53.57.070,contrast_sensitivity,2024.2.4,None,2025-01-26 14h54.03.030954 -0500,
1e-05,-1,0.1,339,59,4,left,0.7324637079145759,None,4,59,339,37,393.1117002910469,,,,393.0997118749656,393.6949862500187,394.43078100006096,left,0.7324637079145759,None,demo,001,2025-01-26_14h53.57.070,contrast_sensitivity,2024.2.4,None,2025-01-26 14h54.03.030954 -0500,
1e-05,1,0.1,340,60,4,right,0.3905065410071984,None,4,60,340,30,394.4395714580314,,,,394.43277037504595,395.0288291659672,395.42969366605394,right,0.3905065410071984,None,demo,001,2025-01-26_14h53.57.070,contrast_sensitivity,2024.2.4,None,2025-01-26 14h54.03.030954 -0500,
0.1,-1,0.05,341,61,4,left,0.39577820897102356,None,4,61,341,54,395.43499204097316,,,,395.43120758305304,396.02856620796956,396.42930283304304,left,0.39577820897102356,None,demo,001,2025-01-26_14h53.57.070,contrast_sensitivity,2024.2.4,None,2025-01-26 14h54.03.030954 -0500,
1e-05,-1,0.025,342,62,4,left,0.43271275004372,None,4,62,342,65,396.43406770797446,,,,396.43048470804933,397.02864862501156,397.46397058304865,left,0.43271275004372,None,demo,001,2025-01-26_14h53.57.070,contrast_sensitivity,2024.2.4,None,2025-01-26 14h54.03.030954 -0500,
0.001,-1,0.2,343,63,4,right,0.401317875017412,None,4,63,343,24,397.47177954099607,,,,397.4660121250199,398.06197483302094,398.480696832994,right,0.401317875017412,None,demo,001,2025-01-26_14h53.57.070,contrast_sensitivity,2024.2.4,None,2025-01-26 14h54.03.030954 -0500,
0.1,1,0.4,344,64,4,right,0.1440129589755088,None,4,64,344,5,398.4951527500525,,,,398.4826495409943,399.0782817499712,399.22967512498144,right,0.1440129589755088,None,demo,001,2025-01-26_14h53.57.070,contrast_sensitivity,2024.2.4,None,2025-01-26 14h54.03.030954 -0500,
1e-05,1,0.4,345,65,4,right,0.37183720793109387,None,4,65,345,2,399.2385276249843,,,,399.23157416598406,399.82741650007665,400.21395591599867,right,0.37183720793109387,None,demo,001,2025-01-26_14h53.57.070,contrast_sensitivity,2024.2.4,None,2025-01-26 14h54.03.030954 -0500,
1e-07,1,0.4,346,66,4,left,0.4035334170330316,None,4,66,346,1,400.22269704099745,,,,400.21597637503874,400.8117137500085,401.2174479160458,left,0.4035334170330316,None,demo,001,2025-01-26_14h53.57.070,contrast_sensitivity,2024.2.4,None,2025-01-26 14h54.03.030954 -0500,
1.0,1,0.2,347,67,4,right,0.13503312494140118,None,4,67,347,20,401.22792516602203,,,,401.2193550830707,401.8162309160689,401.9640761660412,right,0.13503312494140118,None,demo,001,2025-01-26_14h53.57.070,contrast_sensitivity,2024.2.4,None,2025-01-26 14h54.03.030954 -0500,
1e-05,1,0.025,348,68,4,right,1.6122980839572847,None,4,68,348,58,401.97252466599457,,,,401.96600229106843,402.56187616602983,404.1788742080098,right,1.6122980839572847,None,demo,001,2025-01-26_14h53.57.070,contrast_sensitivity,2024.2.4,None,2025-01-26 14h54.03.030954 -0500,
1.0,1,0.1,349,69,4,right,0.5433047079714015,None,4,69,349,34,404.18376029096544,,,,404.1801958750002,404.76586558297276,405.3133431660244,right,0.5433047079714015,None,demo,001,2025-01-26_14h53.57.070,contrast_sensitivity,2024.2.4,None,2025-01-26 14h54.03.030954 -0500,
1.0,-1,0.4,350,0,5,left,0.3013532500481233,None,5,0,350,13,405.318440666073,,,,405.3146064580651,405.91209083306603,406.2177260409808,left,0.3013532500481233,None,demo,001,2025-01-26_14h53.57.070,contrast_sensitivity,2024.2.4,None,2025-01-26 14h54.03.030954 -0500,
1e-05,-1,0.4,351,1,5,left,0.4778874999610707,None,5,1,351,9,406.2278027080465,,,,406.2197785410099,406.8162724580616,407.2977033329662,left,0.4778874999610707,None,demo,001,2025-01-26_14h53.57.070,contrast_sensitivity,2024.2.4,None,2025-01-26 14h54.03.030954 -0500,
0.01,1,0.4,352,2,5,right,0.4797586250351742,None,5,2,352,4,407.3058147500269,,,,407.29983191599604,407.8953590000747,408.3802422080189,right,0.4797586250351742,None,demo,001,2025-01-26_14h53.57.070,contrast_sensitivity,2024.2.4,None,2025-01-26 14h54.03.030954 -0500,
1e-07,1,0.025,353,3,5,right,0.6235791250364855,None,5,3,353,57,408.3889586250298,,,,408.3821740830317,408.9784852080047,409.61349958297797,right,0.6235791250364855,None,demo,001,2025-01-26_14h53.57.070,contrast_sensitivity,2024.2.4,None,2025-01-26 14h54.03.030954 -0500,
0.01,1,0.05,354,4,5,left,0.45626979193184525,None,5,4,354,46,409.6223641660763,,,,409.6154978330014,410.21179062500596,410.6820909579983,left,0.45626979193184525,None,demo,001,2025-01-26_14h53.57.070,contrast_sensitivity,2024.2.4,None,2025-01-26 14h54.03.030954 -0500,
0.001,1,0.4,355,5,5,right,0.37441449996549636,None,5,5,355,3,410.69546383304987,,,,410.68414812500123,411.2786013750592,411.66308774997015,right,0.37441449996549636,None,demo,001,2025-01-26_14h53.57.070,contrast_sensitivity,2024.2.4,None,2025-01-26 14h54.03.030954 -0500,
0.001,1,0.05,356,6,5,left,0.5454223329434171,None,5,6,356,45,411.6704728329787,,,,411.66467225004453,412.26169349998236,412.8140129579697,left,0.5454223329434171,None,demo,001,2025-01-26_14h53.57.070,contrast_sensitivity,2024.2.4,None,2025-01-26 14h54.03.030954 -0500,
1e-05,-1,0.05,357,7,5,left,0.5662259170785546,None,5,7,357,51,412.8224457909819,,,,412.8158930829959,413.4117383330595,413.98075883300044,left,0.5662259170785546,None,demo,001,2025-01-26_14h53.57.070,contrast_sensitivity,2024.2.4,None,2025-01-26 14h54.03.030954 -0500,
1e-05,1,0.4,358,8,5,left,0.5066307079978287,None,5,8,358,2,413.9893453330733,,,,413.9826756250113,414.5783588750055,415.09766575007234,left,0.5066307079978287,None,demo,001,2025-01-26_14h53.57.070,contrast_sensitivity,2024.2.4,None,2025-01-26 14h54.03.030954 -0500,
1.0,1,0.2,359,9,5,right,0.3110857089050114,None,5,9,359,20,415.11178962502163,,,,415.099604499992,415.69497841596603,416.01408779097255,right,0.3110857089050114,None,demo,001,2025-01-26_14h53.57.070,contrast_sensitivity,2024.2.4,None,2025-01-26 14h54.03.030954 -0500,
0.1,1,0.025,360,10,5,right,0.4293644999852404,None,5,10,360,61,416.0228177079698,,,,416.0160240000114,416.6116200410761,417.04780891607516,right,0.4293644999852404,None,demo,001,2025-01-26_14h53.57.070,contrast_sensitivity,2024.2.4,None,2025-01-26 14h54.03.030954 -0500,
1e-09,1,0.2,361,11,5,right,0.4787279579322785,None,5,11,361,14,417.0616491660476,,,,417.0498488750309,417.64515633299015,418.13002154103015,right,0.4787279579322785,None,demo,001,2025-01-26_14h53.57.070,contrast_sensitivity,2024.2.4,None,2025-01-26 14h54.03.030954 -0500,
1.0,-1,0.025,362,12,5,left,0.3435654169879854,None,5,12,362,69,418.13816483307164,,,,418.13198704097886,418.72832404100336,419.0808063329896,left,0.3435654169879854,None,demo,001,2025-01-26_14h53.57.070,contrast_sensitivity,2024.2.4,None,2025-01-26 14h54.03.030954 -0500,
0.01,1,0.1,363,13,5,left,0.42659562500193715,None,5,13,363,32,419.08932949998416,,,,419.0828397909645,419.67836666607764,420.11395495804027,left,0.42659562500193715,None,demo,001,2025-01-26_14h53.57.070,contrast_sensitivity,2024.2.4,None,2025-01-26 14h54.03.030954 -0500,
0.01,-1,0.1,364,14,5,left,0.4891269590007141,None,5,14,364,39,420.12265116604976,,,,420.1160600830335,420.7116985410685,421.2138012080686,left,0.4891269590007141,None,demo,001,2025-01-26_14h53.57.070,contrast_sensitivity,2024.2.4,None,2025-01-26 14h54.03.030954 -0500,
1e-07,-1,0.1,365,15,5,right,0.48509424994699657,None,5,15,365,36,421.2224347910378,,,,421.2157973330468,421.8116564580705,422.30092166597024,right,0.48509424994699657,None,demo,001,2025-01-26_14h53.57.070,contrast_sensitivity,2024.2.4,None,2025-01-26 14h54.03.030954 -0500,
0.001,-1,0.025,366,16,5,left,0.5960916670737788,None,5,16,366,66,422.311636166065,,,,422.3029031250626,422.9117590000387,423.5137839160161,left,0.5960916670737788,None,demo,001,2025-01-26_14h53.57.070,contrast_sensitivity,2024.2.4,None,2025-01-26 14h54.03.030954 -0500,
