contrast,location,cpd,thisN,thisTrialN,thisRepN,response.keys,response.rt,response.duration,trials.thisRepN,trials.thisTrialN,trials.thisN,trials.thisIndex,thisRow.t,notes,begin_experiment.started,begin_experiment.stopped,trial.started,response.started,trial.stopped,trials.response.keys,trials.response.rt,trials.response.duration,participant,session,date,expName,psychopyVersion,frameRate,expStart,
,,,,,,,,,,,,,,,0.009002167033031583,0.9888919999357313,,,,,,,demo,001,2025-02-03_14h57.04.486,contrast_sensitivity,2024.2.4,None,2025-02-03 14h57.12.349030 -0500,
0.0001,-1,8,0,0,0,left,0.5306150410324335,None,0,0,0,51,1.0018404580187052,,,,0.9961494170129299,1.5952538750134408,2.130489749950357,left,0.5306150410324335,None,demo,001,2025-02-03_14h57.04.486,contrast_sensitivity,2024.2.4,None,2025-02-03 14h57.12.349030 -0500,
0.01,1,8,1,1,0,left,0.3495745420223102,None,0,1,1,46,2.138709250022657,,,,2.132845332962461,2.7451498330337927,3.0978128749411553,left,0.3495745420223102,None,demo,001,2025-02-03_14h57.04.486,contrast_sensitivity,2024.2.4,None,2025-02-03 14h57.12.349030 -0500,
0.1,1,16,2,2,0,right,0.3368062499212101,None,0,2,2,61,3.116946541937068,,,,3.0997843330260366,3.694794666953385,4.034781374968588,right,0.3368062499212101,None,demo,001,2025-02-03_14h57.04.486,contrast_sensitivity,2024.2.4,None,2025-02-03 14h57.12.349030 -0500,
1e-06,-1,1,3,3,0,left,0.3155020410194993,None,0,3,3,8,4.044890583027154,,,,4.03717616701033,4.633063249988481,4.950794582953677,left,0.3155020410194993,None,demo,001,2025-02-03_14h57.04.486,contrast_sensitivity,2024.2.4,None,2025-02-03 14h57.12.349030 -0500,
0.0001,-1,4,4,4,0,left,0.11532129195984453,None,0,4,4,37,4.961732042022049,,,,4.952412375016138,5.545233707991429,5.6644246249925345,left,0.11532129195984453,None,demo,001,2025-02-03_14h57.04.486,contrast_sensitivity,2024.2.4,None,2025-02-03 14h57.12.349030 -0500,
1e-08,-1,4,5,5,0,left,0.17126812494825572,None,0,5,5,35,5.671613708022051,,,,5.666608957923017,6.261215582955629,6.445941166952252,left,0.17126812494825572,None,demo,001,2025-02-03_14h57.04.486,contrast_sensitivity,2024.2.4,None,2025-02-03 14h57.12.349030 -0500,
1.0,1,16,6,6,0,right,0.13840087491553277,None,0,6,6,62,6.451925041968934,,,,6.447380124940537,7.044104082975537,7.196161875035614,right,0.13840087491553277,None,demo,001,2025-02-03_14h57.04.486,contrast_sensitivity,2024.2.4,None,2025-02-03 14h57.12.349030 -0500,
0.001,-1,2,7,7,0,left,0.08050141599960625,None,0,7,7,24,7.20286145794671,,,,7.197942749946378,7.782994874985889,7.881024000002071,left,0.08050141599960625,None,demo,001,2025-02-03_14h57.04.486,contrast_sensitivity,2024.2.4,None,2025-02-03 14h57.12.349030 -0500,
1e-08,-1,1,8,8,0,left,0.3272305829450488,None,0,8,8,7,7.89537558297161,,,,7.883149625035003,8.478429042035714,8.81470566696953,left,0.3272305829450488,None,demo,001,2025-02-03_14h57.04.486,contrast_sensitivity,2024.2.4,None,2025-02-03 14h57.12.349030 -0500,
0.0001,1,4,9,9,0,left,0.23266158299520612,None,0,9,9,30,8.82855220802594,,,,8.817021291935816,9.412767582922243,9.65153337502852,left,0.23266158299520612,None,demo,001,2025-02-03_14h57.04.486,contrast_sensitivity,2024.2.4,None,2025-02-03 14h57.12.349030 -0500,
1.0,1,4,10,10,0,right,0.04580195795278996,None,0,10,10,34,9.661645332933404,,,,9.65356124995742,10.2496534580132,10.301439082948491,right,0.04580195795278996,None,demo,001,2025-02-03_14h57.04.486,contrast_sensitivity,2024.2.4,None,2025-02-03 14h57.12.349030 -0500,
0.1,-1,16,11,11,0,left,0.14815754094161093,None,0,11,11,68,10.311554083018564,,,,10.30415795801673,10.900283208000474,11.062261499930173,left,0.14815754094161093,None,demo,001,2025-02-03_14h57.04.486,contrast_sensitivity,2024.2.4,None,2025-02-03 14h57.12.349030 -0500,
0.1,1,2,12,12,0,right,0.9604785410920158,None,0,12,12,19,11.067357416963205,,,,11.063418624922633,11.649978499975987,12.615001625032164,right,0.9604785410920158,None,demo,001,2025-02-03_14h57.04.486,contrast_sensitivity,2024.2.4,None,2025-02-03 14h57.12.349030 -0500,
1e-08,1,2,13,13,0,left,0.5919573330320418,None,0,13,13,14,12.628518791985698,,,,12.61751829192508,13.211571499938145,13.813791916938499,left,0.5919573330320418,None,demo,001,2025-02-03_14h57.04.486,contrast_sensitivity,2024.2.4,None,2025-02-03 14h57.12.349030 -0500,
0.001,1,1,14,14,0,left,0.3734130000229925,None,0,14,14,3,13.820506624993868,,,,13.81563579197973,14.41090641694609,14.795732749975286,left,0.3734130000229925,None,demo,001,2025-02-03_14h57.04.486,contrast_sensitivity,2024.2.4,None,2025-02-03 14h57.12.349030 -0500,
0.0001,-1,2,15,15,0,left,0.15935454098507762,None,0,15,15,23,14.800674541969784,,,,14.797074166941456,15.39516862493474,15.564117457950488,left,0.15935454098507762,None,demo,001,2025-02-03_14h57.04.486,contrast_sensitivity,2024.2.4,None,2025-02-03 14h57.12.349030 -0500,
0.0001,-1,1,16,16,0,left,0.1464442500146106,None,0,16,16,9,15.571626791963354,,,,15.566535125020891,16.16201429197099,16.314470416982658,left,0.1464442500146106,None,demo,001,2025-02-03_14h57.04.486,contrast_sensitivity,2024.2.4,None,2025-02-03 14h57.12.349030 -0500,
0.001,1,4,17,17,0,left,0.17139074997976422,None,0,17,17,31,16.32189424999524,,,,16.31682191696018,16.91184787498787,17.09782679192722,left,0.17139074997976422,None,demo,001,2025-02-03_14h57.04.486,contrast_sensitivity,2024.2.4,None,2025-02-03 14h57.12.349030 -0500,
1e-06,-1,8,18,18,0,left,0.14334945799782872,None,0,18,18,50,17.104867874993943,,,,17.099890667013824,17.696137416991405,17.8474472919479,left,0.14334945799782872,None,demo,001,2025-02-03_14h57.04.486,contrast_sensitivity,2024.2.4,None,2025-02-03 14h57.12.349030 -0500,
1e-06,1,4,19,19,0,left,0.17735166708007455,None,0,19,19,29,17.85604795801919,,,,17.849848916986957,18.448886124999262,18.630691417027265,left,0.17735166708007455,None,demo,001,2025-02-03_14h57.04.486,contrast_sensitivity,2024.2.4,None,2025-02-03 14h57.12.349030 -0500,
1.0,-1,2,20,20,0,left,0.040786874014884233,None,0,20,20,27,18.64516591699794,,,,18.631974957999773,19.22852583299391,19.280524792033248,left,0.040786874014884233,None,demo,001,2025-02-03_14h57.04.486,contrast_sensitivity,2024.2.4,None,2025-02-03 14h57.12.349030 -0500,
0.1,-1,2,21,21,0,left,0.045771083096042275,None,0,21,21,26,19.287529457942583,,,,19.282718417001888,19.878514582989737,19.929552749963477,left,0.045771083096042275,None,demo,001,2025-02-03_14h57.04.486,contrast_sensitivity,2024.2.4,None,2025-02-03 14h57.12.349030 -0500,
1.0,1,1,22,22,0,right,0.04858512501232326,None,0,22,22,6,19.935477667022496,,,,19.930891957948916,20.52840245794505,20.581625499995425,right,0.04858512501232326,None,demo,001,2025-02-03_14h57.04.486,contrast_sensitivity,2024.2.4,None,2025-02-03 14h57.12.349030 -0500,
1.0,-1,4,23,23,0,left,0.06082366604823619,None,0,23,23,41,20.59060908295214,,,,20.58433787501417,21.17850024998188,21.24772658292204,left,0.06082366604823619,None,demo,001,2025-02-03_14h57.04.486,contrast_sensitivity,2024.2.4,None,2025-02-03 14h57.12.349030 -0500,
0.01,-1,4,24,24,0,left,0.21800375008024275,None,0,24,24,39,21.255954958032817,,,,21.249964999966323,21.84519820800051,22.070796707994305,left,0.21800375008024275,None,demo,001,2025-02-03_14h57.04.486,contrast_sensitivity,2024.2.4,None,2025-02-03 14h57.12.349030 -0500,
1e-06,1,1,25,25,0,left,0.3005334580084309,None,0,25,25,1,22.077225791988894,,,,22.07273129199166,22.664603332988918,22.979385082959197,left,0.3005334580084309,None,demo,001,2025-02-03_14h57.04.486,contrast_sensitivity,2024.2.4,None,2025-02-03 14h57.12.349030 -0500,
0.001,1,16,26,26,0,left,0.5833730410085991,None,0,26,26,59,22.984583291923627,,,,22.98077620798722,23.566800124943256,24.163731958018616,left,0.5833730410085991,None,demo,001,2025-02-03_14h57.04.486,contrast_sensitivity,2024.2.4,None,2025-02-03 14h57.12.349030 -0500,
1.0,-1,16,27,27,0,left,0.2872529160231352,None,0,27,27,69,24.172811417025514,,,,24.16576087498106,24.76183629198931,25.05041404196527,left,0.2872529160231352,None,demo,001,2025-02-03_14h57.04.486,contrast_sensitivity,2024.2.4,None,2025-02-03 14h57.12.349030 -0500,
0.01,1,4,28,28,0,left,0.1518944159615785,None,0,28,28,32,25.061535416985862,,,,25.052021667012013,25.64517629193142,25.80159641697537,left,0.1518944159615785,None,demo,001,2025-02-03_14h57.04.486,contrast_sensitivity,2024.2.4,None,2025-02-03 14h57.12.349030 -0500,
1e-08,1,16,29,29,0,left,0.10941112495493144,None,0,29,29,56,25.810525999986567,,,,25.80391062493436,26.399642832926475,26.514413916971534,left,0.10941112495493144,None,demo,001,2025-02-03_14h57.04.486,contrast_sensitivity,2024.2.4,None,2025-02-03 14h57.12.349030 -0500,
0.0001,1,2,30,30,0,left,0.6545132920145988,None,0,30,30,16,26.52202766702976,,,,26.516599541995674,27.117516292026266,27.779839708004147,left,0.6545132920145988,None,demo,001,2025-02-03_14h57.04.486,contrast_sensitivity,2024.2.4,None,2025-02-03 14h57.12.349030 -0500,
0.001,-1,4,31,31,0,left,0.14978633308783174,None,0,31,31,38,27.78677054203581,,,,27.781815625028685,28.37928729201667,28.53466895793099,left,0.14978633308783174,None,demo,001,2025-02-03_14h57.04.486,contrast_sensitivity,2024.2.4,None,2025-02-03 14h57.12.349030 -0500,
0.01,-1,8,32,32,0,left,0.0797655830392614,None,0,32,32,53,28.544888542033732,,,,28.536887708003633,29.1332630419638,29.23126533301547,left,0.0797655830392614,None,demo,001,2025-02-03_14h57.04.486,contrast_sensitivity,2024.2.4,None,2025-02-03 14h57.12.349030 -0500,
0.01,1,16,33,33,0,left,0.09745558304712176,None,0,33,33,60,29.24549549992662,,,,29.23330454202369,29.82753574999515,29.92940170795191,left,0.09745558304712176,None,demo,001,2025-02-03_14h57.04.486,contrast_sensitivity,2024.2.4,None,2025-02-03 14h57.12.349030 -0500,
0.0001,1,1,34,34,0,left,0.18840566696599126,None,0,34,34,2,29.934587916941382,,,,29.930784791940823,30.5275267920224,30.729953333036974,left,0.18840566696599126,None,demo,001,2025-02-03_14h57.04.486,contrast_sensitivity,2024.2.4,None,2025-02-03 14h57.12.349030 -0500,
1e-06,-1,4,35,35,0,left,0.26314562500920147,None,0,35,35,36,30.73735437495634,,,,30.73170529201161,31.32886804197915,31.597224083030596,left,0.26314562500920147,None,demo,001,2025-02-03_14h57.04.486,contrast_sensitivity,2024.2.4,None,2025-02-03 14h57.12.349030 -0500,
0.01,-1,2,36,36,0,left,0.24364704207982868,None,0,36,36,25,31.606042083003558,,,,31.59973712498322,32.19535358296707,32.44784212496597,left,0.24364704207982868,None,demo,001,2025-02-03_14h57.04.486,contrast_sensitivity,2024.2.4,None,2025-02-03 14h57.12.349030 -0500,
1.0,-1,1,37,37,0,left,0.15791116596665233,None,0,37,37,13,32.456934083020315,,,,32.45012720802333,33.04509699996561,33.21401691692881,left,0.15791116596665233,None,demo,001,2025-02-03_14h57.04.486,contrast_sensitivity,2024.2.4,None,2025-02-03 14h57.12.349030 -0500,
0.1,1,1,38,38,0,right,0.32888266595546156,None,0,38,38,5,33.222686041961424,,,,33.21605612500571,33.81191049993504,34.147391207981855,right,0.32888266595546156,None,demo,001,2025-02-03_14h57.04.486,contrast_sensitivity,2024.2.4,None,2025-02-03 14h57.12.349030 -0500,
1.0,1,2,39,39,0,right,0.2639212500071153,None,0,39,39,20,34.156090916949324,,,,34.14931766700465,34.74514224997256,35.014500207966194,right,0.2639212500071153,None,demo,001,2025-02-03_14h57.04.486,contrast_sensitivity,2024.2.4,None,2025-02-03 14h57.12.349030 -0500,
0.001,-1,8,40,40,0,left,0.11474258301313967,None,0,40,40,52,35.0225303749321,,,,35.01676799997222,35.61211408302188,35.730747999972664,left,0.11474258301313967,None,demo,001,2025-02-03_14h57.04.486,contrast_sensitivity,2024.2.4,None,2025-02-03 14h57.12.349030 -0500,
1.0,-1,8,41,41,0,left,0.25736066699028015,None,0,41,41,55,35.73917016701307,,,,35.73296837497037,36.3284826669842,36.59774087497499,left,0.25736066699028015,None,demo,001,2025-02-03_14h57.04.486,contrast_sensitivity,2024.2.4,None,2025-02-03 14h57.12.349030 -0500,
0.01,1,1,42,42,0,left,0.18661837500985712,None,0,42,42,4,36.606257917010225,,,,36.599859624984674,37.19523804192431,37.40028016699944,left,0.18661837500985712,None,demo,001,2025-02-03_14h57.04.486,contrast_sensitivity,2024.2.4,None,2025-02-03 14h57.12.349030 -0500,
0.001,-1,1,43,43,0,left,0.13672458298970014,None,0,43,43,10,37.41181833297014,,,,37.40160870796535,37.99805154197384,38.14560062496457,left,0.13672458298970014,None,demo,001,2025-02-03_14h57.04.486,contrast_sensitivity,2024.2.4,None,2025-02-03 14h57.12.349030 -0500,
1e-06,-1,16,44,44,0,left,0.0587518330430612,None,0,44,44,64,38.15173929196317,,,,38.147172458004206,38.733073957962915,38.79759629198816,left,0.0587518330430612,None,demo,001,2025-02-03_14h57.04.486,contrast_sensitivity,2024.2.4,None,2025-02-03 14h57.12.349030 -0500,
0.001,1,8,45,45,0,left,0.04460345802363008,None,0,45,45,45,38.806512458017096,,,,38.799698333023116,39.39525316702202,39.44717108295299,left,0.04460345802363008,None,demo,001,2025-02-03_14h57.04.486,contrast_sensitivity,2024.2.4,None,2025-02-03 14h57.12.349030 -0500,
1e-08,-1,2,46,46,0,left,0.3986426240298897,None,0,46,46,21,39.45562345802318,,,,39.4502932500327,40.04511125001591,40.44648404198233,left,0.3986426240298897,None,demo,001,2025-02-03_14h57.04.486,contrast_sensitivity,2024.2.4,None,2025-02-03 14h57.12.349030 -0500,
0.1,-1,8,47,47,0,left,0.1650609999196604,None,0,47,47,54,40.46324895799626,,,,40.44760816695634,41.04573533299845,41.21268716698978,left,0.1650609999196604,None,demo,001,2025-02-03_14h57.04.486,contrast_sensitivity,2024.2.4,None,2025-02-03 14h57.12.349030 -0500,
1e-06,1,2,48,48,0,left,0.1825899159302935,None,0,48,48,15,41.21895491692703,,,,41.21450958296191,41.81211699999403,41.9978795000352,left,0.1825899159302935,None,demo,001,2025-02-03_14h57.04.486,contrast_sensitivity,2024.2.4,None,2025-02-03 14h57.12.349030 -0500,
0.1,1,8,49,49,0,right,0.21036937402095646,None,0,49,49,47,42.00538529199548,,,,42.0001443750225,42.59535808302462,42.81418841693085,right,0.21036937402095646,None,demo,001,2025-02-03_14h57.04.486,contrast_sensitivity,2024.2.4,None,2025-02-03 14h57.12.349030 -0500,
1e-06,-1,2,50,50,0,right,0.7343484580051154,None,0,50,50,22,42.82200912502594,,,,42.81651699997019,43.412267999956384,44.151803624932654,right,0.7343484580051154,None,demo,001,2025-02-03_14h57.04.486,contrast_sensitivity,2024.2.4,None,2025-02-03 14h57.12.349030 -0500,
1e-08,-1,16,51,51,0,left,0.6505796250421554,None,0,51,51,63,44.1618315000087,,,,44.153680666931905,44.749047707999125,45.41381837497465,left,0.6505796250421554,None,demo,001,2025-02-03_14h57.04.486,contrast_sensitivity,2024.2.4,None,2025-02-03 14h57.12.349030 -0500,
0.1,-1,4,52,52,0,left,0.418739749933593,None,0,52,52,40,45.422676166985184,,,,45.41589262499474,46.010846707969904,46.432447957922705,left,0.418739749933593,None,demo,001,2025-02-03_14h57.04.486,contrast_sensitivity,2024.2.4,None,2025-02-03 14h57.12.349030 -0500,
1e-08,1,1,53,53,0,left,0.4590426249196753,None,0,53,53,0,46.44406374997925,,,,46.433612999971956,47.02856433298439,47.49733112496324,left,0.4590426249196753,None,demo,001,2025-02-03_14h57.04.486,contrast_sensitivity,2024.2.4,None,2025-02-03 14h57.12.349030 -0500,
1.0,1,8,54,54,0,right,0.14558433298952878,None,0,54,54,48,47.50589387502987,,,,47.499187291949056,48.09513924992643,48.24771291692741,right,0.14558433298952878,None,demo,001,2025-02-03_14h57.04.486,contrast_sensitivity,2024.2.4,None,2025-02-03 14h57.12.349030 -0500,
0.01,1,2,55,55,0,left,1.1304166249465197,None,0,55,55,18,48.255235958029516,,,,48.25002375000622,48.84513154195156,49.980697999941185,left,1.1304166249465197,None,demo,001,2025-02-03_14h57.04.486,contrast_sensitivity,2024.2.4,None,2025-02-03 14h57.12.349030 -0500,
0.01,-1,1,56,56,0,left,0.6727619579760358,None,0,56,56,11,49.98829862498678,,,,49.98268533300143,50.578724166960455,51.26483079197351,left,0.6727619579760358,None,demo,001,2025-02-03_14h57.04.486,contrast_sensitivity,2024.2.4,None,2025-02-03 14h57.12.349030 -0500,
0.0001,1,8,57,57,0,right,0.4029474160633981,None,0,57,57,44,51.27330524998251,,,,51.266911957995035,51.861595917027444,52.267698667012155,right,0.4029474160633981,None,demo,001,2025-02-03_14h57.04.486,contrast_sensitivity,2024.2.4,None,2025-02-03 14h57.12.349030 -0500,
0.01,-1,16,58,58,0,left,0.4852786670671776,None,0,58,58,67,52.278313042013906,,,,52.269876417005435,52.86618345801253,53.364249374950305,left,0.4852786670671776,None,demo,001,2025-02-03_14h57.04.486,contrast_sensitivity,2024.2.4,None,2025-02-03 14h57.12.349030 -0500,
0.0001,1,16,59,59,0,left,0.7632483739871532,None,0,59,59,58,53.37295379198622,,,,53.36636208300479,53.961134832934476,54.729311708011664,left,0.7632483739871532,None,demo,001,2025-02-03_14h57.04.486,contrast_sensitivity,2024.2.4,None,2025-02-03 14h57.12.349030 -0500,
0.1,-1,1,60,60,0,left,0.2073487079469487,None,0,60,60,12,54.734663416980766,,,,54.73105504200794,55.31721849995665,55.530504249967635,left,0.2073487079469487,None,demo,001,2025-02-03_14h57.04.486,contrast_sensitivity,2024.2.4,None,2025-02-03 14h57.12.349030 -0500,
0.001,-1,16,61,61,0,left,0.1800504579441622,None,0,61,61,66,55.538508208002895,,,,55.532793874968775,56.128341375035234,56.31432920799125,left,0.1800504579441622,None,demo,001,2025-02-03_14h57.04.486,contrast_sensitivity,2024.2.4,None,2025-02-03 14h57.12.349030 -0500,
1e-08,-1,8,62,62,0,left,0.20994720794260502,None,0,62,62,49,56.3213741669897,,,,56.31718891696073,56.911586083006114,57.13086587493308,left,0.20994720794260502,None,demo,001,2025-02-03_14h57.04.486,contrast_sensitivity,2024.2.4,None,2025-02-03 14h57.12.349030 -0500,
0.0001,-1,16,63,63,0,left,0.3826577499276027,None,0,63,63,65,57.13872020796407,,,,57.1331481669331,57.72866233298555,58.11387979192659,left,0.3826577499276027,None,demo,001,2025-02-03_14h57.04.486,contrast_sensitivity,2024.2.4,None,2025-02-03 14h57.12.349030 -0500,
1e-08,1,8,64,64,0,right,0.06820400001015514,None,0,64,64,42,58.12328291696031,,,,58.116414792020805,58.7171209580265,58.798114666948095,right,0.06820400001015514,None,demo,001,2025-02-03_14h57.04.486,contrast_sensitivity,2024.2.4,None,2025-02-03 14h57.12.349030 -0500,
0.001,1,2,65,65,0,left,0.34324624901637435,None,0,65,65,17,58.80640437500551,,,,58.80060141696595,59.395143874920905,59.746968999970704,left,0.34324624901637435,None,demo,001,2025-02-03_14h57.04.486,contrast_sensitivity,2024.2.4,None,2025-02-03 14h57.12.349030 -0500,
1e-08,1,4,66,66,0,left,0.5161196659319103,None,0,66,66,28,59.75587354192976,,,,59.74967699998524,60.34517041698564,60.864150124951266,left,0.5161196659319103,None,demo,001,2025-02-03_14h57.04.486,contrast_sensitivity,2024.2.4,None,2025-02-03 14h57.12.349030 -0500,
1e-06,1,16,67,67,0,right,0.8721719580935314,None,0,67,67,57,60.87852487503551,,,,60.86641720798798,61.46202720794827,62.34630066703539,right,0.8721719580935314,None,demo,001,2025-02-03_14h57.04.486,contrast_sensitivity,2024.2.4,None,2025-02-03 14h57.12.349030 -0500,
1e-06,1,8,68,68,0,left,0.5700226250337437,None,0,68,68,43,62.35229474992957,,,,62.34779320796952,62.94516300002579,63.518195000011474,left,0.5700226250337437,None,demo,001,2025-02-03_14h57.04.486,contrast_sensitivity,2024.2.4,None,2025-02-03 14h57.12.349030 -0500,
0.1,1,4,69,69,0,right,0.43885666702408344,None,0,69,69,33,63.52736629196443,,,,63.52031979197636,64.11649595794734,64.56392266694456,right,0.43885666702408344,None,demo,001,2025-02-03_14h57.04.486,contrast_sensitivity,2024.2.4,None,2025-02-03 14h57.12.349030 -0500,
0.1,-1,8,70,0,1,left,0.36534691601991653,None,1,0,70,54,64.5725309579866,,,,64.56639887497295,65.16183383297175,65.5307039580075,left,0.36534691601991653,None,demo,001,2025-02-03_14h57.04.486,contrast_sensitivity,2024.2.4,None,2025-02-03 14h57.12.349030 -0500,
1e-08,-1,16,71,1,1,left,0.6876021239440888,None,1,1,71,63,65.53845058300067,,,,65.5327867079759,66.12850695801899,66.817905416945,left,0.6876021239440888,None,demo,001,2025-02-03_14h57.04.486,contrast_sensitivity,2024.2.4,None,2025-02-03 14h57.12.349030 -0500,
0.0001,1,2,72,2,1,right,0.43429316603578627,None,1,2,72,16,66.82816537492909,,,,66.82029291696381,67.41480758297257,67.85080499993637,right,0.43429316603578627,None,demo,001,2025-02-03_14h57.04.486,contrast_sensitivity,2024.2.4,None,2025-02-03 14h57.12.349030 -0500,
0.001,1,16,73,3,1,right,0.8185022079851478,None,1,3,73,59,67.8615372920176,,,,67.85299412498716,68.44554979202803,69.26733270799741,right,0.8185022079851478,None,demo,001,2025-02-03_14h57.04.486,contrast_sensitivity,2024.2.4,None,2025-02-03 14h57.12.349030 -0500,
1.0,1,4,74,4,1,right,0.3626263329060748,None,1,4,74,34,69.27808037493378,,,,69.26965929195285,69.94979208300356,70.31596545793582,right,0.3626263329060748,None,demo,001,2025-02-03_14h57.04.486,contrast_sensitivity,2024.2.4,None,2025-02-03 14h57.12.349030 -0500,
1e-06,1,8,75,5,1,right,0.3324696240015328,None,1,5,75,43,70.32725429197308,,,,70.31704670796171,70.91456062498037,71.25060508295428,right,0.3324696240015328,None,demo,001,2025-02-03_14h57.04.486,contrast_sensitivity,2024.2.4,None,2025-02-03 14h57.12.349030 -0500,
1e-06,-1,1,76,6,1,left,0.37836237507872283,None,1,6,76,8,71.26163208298385,,,,71.25349833292421,71.84966933296528,72.23137724993285,left,0.37836237507872283,None,demo,001,2025-02-03_14h57.04.486,contrast_sensitivity,2024.2.4,None,2025-02-03 14h57.12.349030 -0500,
1e-08,1,16,77,7,1,left,0.3945296249585226,None,1,7,77,56,72.24002495792229,,,,72.23333704192191,72.82860100001562,73.23119337495882,left,0.3945296249585226,None,demo,001,2025-02-03_14h57.04.486,contrast_sensitivity,2024.2.4,None,2025-02-03 14h57.12.349030 -0500,
1e-08,-1,4,78,8,1,left,0.561869457946159,None,1,8,78,35,73.23936424998101,,,,73.23366616701242,73.84912304196041,74.41423358302563,left,0.561869457946159,None,demo,001,2025-02-03_14h57.04.486,contrast_sensitivity,2024.2.4,None,2025-02-03 14h57.12.349030 -0500,
1.0,1,1,79,9,1,right,0.11811929102987051,None,1,9,79,6,74.42331929202192,,,,74.4163947920315,75.011824416928,75.13351133302785,right,0.11811929102987051,None,demo,001,2025-02-03_14h57.04.486,contrast_sensitivity,2024.2.4,None,2025-02-03 14h57.12.349030 -0500,
0.001,-1,4,80,10,1,left,0.25238070799969137,None,1,10,80,38,75.14412720792461,,,,75.13484187494032,75.73469716694672,75.99731050000992,left,0.25238070799969137,None,demo,001,2025-02-03_14h57.04.486,contrast_sensitivity,2024.2.4,None,2025-02-03 14h57.12.349030 -0500,
0.001,1,1,81,11,1,left,0.35968058300204575,None,1,11,81,3,76.01186691701878,,,,75.9995095829945,76.5953462079633,76.96431016700808,left,0.35968058300204575,None,demo,001,2025-02-03_14h57.04.486,contrast_sensitivity,2024.2.4,None,2025-02-03 14h57.12.349030 -0500,
0.0001,-1,4,82,12,1,left,0.298927583033219,None,1,12,82,37,76.97246175003238,,,,76.96661533298902,77.5619720419636,77.86490816692822,left,0.298927583033219,None,demo,001,2025-02-03_14h57.04.486,contrast_sensitivity,2024.2.4,None,2025-02-03 14h57.12.349030 -0500,
0.1,1,4,83,13,1,right,0.15051370789296925,None,1,13,83,33,77.87870891694911,,,,77.86708841694053,78.46129391703289,78.61532779200934,right,0.15051370789296925,None,demo,001,2025-02-03_14h57.04.486,contrast_sensitivity,2024.2.4,None,2025-02-03 14h57.12.349030 -0500,
1e-08,-1,2,84,14,1,left,0.13705074996687472,None,1,14,84,21,78.6276259579463,,,,78.61663804203272,79.21177654201165,79.35118537500966,left,0.13705074996687472,None,demo,001,2025-02-03_14h57.04.486,contrast_sensitivity,2024.2.4,None,2025-02-03 14h57.12.349030 -0500,
1.0,-1,1,85,15,1,left,0.1869729170575738,None,1,15,85,13,79.36151316692121,,,,79.35361266694963,79.94999358302448,80.14753808302339,left,0.1869729170575738,None,demo,001,2025-02-03_14h57.04.486,contrast_sensitivity,2024.2.4,None,2025-02-03 14h57.12.349030 -0500,
0.1,1,8,86,16,1,right,0.16275395802222192,None,1,16,86,47,80.15614329196978,,,,80.14983904198743,80.74506808293518,80.91380400001071,right,0.16275395802222192,None,demo,001,2025-02-03_14h57.04.486,contrast_sensitivity,2024.2.4,None,2025-02-03 14h57.12.349030 -0500,
0.001,-1,8,87,17,1,left,0.1510801250115037,None,1,17,87,52,80.92127149994485,,,,80.91590608295519,81.51170541695319,81.66764641692862,left,0.1510801250115037,None,demo,001,2025-02-03_14h57.04.486,contrast_sensitivity,2024.2.4,None,2025-02-03 14h57.12.349030 -0500,
0.0001,-1,1,88,18,1,left,0.18374266591854393,None,1,18,88,9,81.67821187502705,,,,81.66987204202451,82.26700391701888,82.46471416694112,left,0.18374266591854393,None,demo,001,2025-02-03_14h57.04.486,contrast_sensitivity,2024.2.4,None,2025-02-03 14h57.12.349030 -0500,
0.01,-1,16,89,19,1,left,0.20950662507675588,None,1,19,89,67,82.47250916692428,,,,82.46687204192858,83.0622516250005,83.28014033299405,left,0.20950662507675588,None,demo,001,2025-02-03_14h57.04.486,contrast_sensitivity,2024.2.4,None,2025-02-03 14h57.12.349030 -0500,
0.1,1,16,90,20,1,right,0.02514312497805804,None,1,20,90,61,83.28646745800506,,,,83.28224720794242,83.89575341693126,83.9308070000261,right,0.02514312497805804,None,demo,001,2025-02-03_14h57.04.486,contrast_sensitivity,2024.2.4,None,2025-02-03 14h57.12.349030 -0500,
0.1,1,2,91,21,1,right,0.004872498917393386,None,1,21,91,19,83.94836199993733,,,,83.93308045796584,84.52880324993748,84.53568924998399,right,0.004872498917393386,None,demo,001,2025-02-03_14h57.04.486,contrast_sensitivity,2024.2.4,None,2025-02-03 14h57.12.349030 -0500,
0.1,-1,2,92,22,1,left,0.06888991594314575,None,1,22,92,26,84.54389674996492,,,,84.53786749998108,85.13286170794163,85.21376933297142,left,0.06888991594314575,None,demo,001,2025-02-03_14h57.04.486,contrast_sensitivity,2024.2.4,None,2025-02-03 14h57.12.349030 -0500,
0.0001,-1,16,93,23,1,left,0.06290170806460083,None,1,23,93,65,85.22248754196335,,,,85.21629399992526,85.8118204579223,85.88056550000329,left,0.06290170806460083,None,demo,001,2025-02-03_14h57.04.486,contrast_sensitivity,2024.2.4,None,2025-02-03 14h57.12.349030 -0500,
1e-08,1,2,94,24,1,left,0.10528029093984514,None,1,24,94,14,85.89497808297165,,,,85.88177004200406,86.4783434169367,86.59570270800032,left,0.10528029093984514,None,demo,001,2025-02-03_14h57.04.486,contrast_sensitivity,2024.2.4,None,2025-02-03 14h57.12.349030 -0500,
1.0,1,8,95,25,1,right,0.04180808295495808,None,1,25,95,48,86.60130987502635,,,,86.59720383293461,87.19499741692562,87.24688233295456,right,0.04180808295495808,None,demo,001,2025-02-03_14h57.04.486,contrast_sensitivity,2024.2.4,None,2025-02-03 14h57.12.349030 -0500,
1e-06,1,2,96,26,1,left,0.11346829193644226,None,1,26,96,15,87.2555945420172,,,,87.24889808299486,87.84520004200749,87.9645088330144,left,0.11346829193644226,None,demo,001,2025-02-03_14h57.04.486,contrast_sensitivity,2024.2.4,None,2025-02-03 14h57.12.349030 -0500,
0.01,1,1,97,27,1,right,0.3083394579589367,None,1,27,97,4,87.97251904197037,,,,87.96674479194917,88.56226270797197,88.87996449996717,right,0.3083394579589367,None,demo,001,2025-02-03_14h57.04.486,contrast_sensitivity,2024.2.4,None,2025-02-03 14h57.12.349030 -0500,
1.0,-1,2,98,28,1,left,0.0397434999467805,None,1,28,98,27,88.88762408297043,,,,88.88199395802803,89.49594724993221,89.54770283296239,left,0.0397434999467805,None,demo,001,2025-02-03_14h57.04.486,contrast_sensitivity,2024.2.4,None,2025-02-03 14h57.12.349030 -0500,
1e-08,1,4,99,29,1,left,0.09850375005044043,None,1,29,99,28,89.56550549995154,,,,89.54988125001546,90.14509624999482,90.24738099996466,left,0.09850375005044043,None,demo,001,2025-02-03_14h57.04.486,contrast_sensitivity,2024.2.4,None,2025-02-03 14h57.12.349030 -0500,
0.1,1,1,100,30,1,right,0.054423374007456005,None,1,30,100,5,90.25549345801119,,,,90.24964795797132,90.84511445800308,90.91199154197238,right,0.054423374007456005,None,demo,001,2025-02-03_14h57.04.486,contrast_sensitivity,2024.2.4,None,2025-02-03 14h57.12.349030 -0500,
1e-06,-1,4,101,31,1,left,0.2729840830434114,None,1,31,101,36,90.9173518329626,,,,90.91390837496147,91.50060654198751,91.78029583301395,left,0.2729840830434114,None,demo,001,2025-02-03_14h57.04.486,contrast_sensitivity,2024.2.4,None,2025-02-03 14h57.12.349030 -0500,
1.0,-1,4,102,32,1,left,0.709926791023463,None,1,32,102,41,91.78876924992073,,,,91.78259316692129,92.3786097499542,93.09799249994103,left,0.709926791023463,None,demo,001,2025-02-03_14h57.04.486,contrast_sensitivity,2024.2.4,None,2025-02-03 14h57.12.349030 -0500,
1e-06,1,1,103,33,1,left,0.046373291057534516,None,1,33,103,1,93.10548366699368,,,,93.10005045798607,93.69526504201349,93.74777620797977,left,0.046373291057534516,None,demo,001,2025-02-03_14h57.04.486,contrast_sensitivity,2024.2.4,None,2025-02-03 14h57.12.349030 -0500,
0.1,-1,4,104,34,1,left,0.01529079198371619,None,1,34,104,40,93.75507016701158,,,,93.75007774995174,94.34418233297765,94.3630517499987,left,0.01529079198371619,None,demo,001,2025-02-03_14h57.04.486,contrast_sensitivity,2024.2.4,None,2025-02-03 14h57.12.349030 -0500,
1.0,1,2,105,35,1,left,0.9495662910630926,None,1,35,105,20,94.36877562501468,,,,94.36462808295619,94.96088445803616,95.91450924996752,left,0.9495662910630926,None,demo,001,2025-02-03_14h57.04.486,contrast_sensitivity,2024.2.4,None,2025-02-03 14h57.12.349030 -0500,
1e-06,-1,2,106,36,1,left,0.08085987507365644,None,1,36,106,22,95.92292137502227,,,,95.91665633302182,96.51172812492587,96.59726333292201,left,0.08085987507365644,None,demo,001,2025-02-03_14h57.04.486,contrast_sensitivity,2024.2.4,None,2025-02-03 14h57.12.349030 -0500,
0.01,1,2,107,37,1,left,0.20233050000388175,None,1,37,107,18,96.60670687502716,,,,96.60017949994653,97.19505820795894,97.40068979200441,left,0.20233050000388175,None,demo,001,2025-02-03_14h57.04.486,contrast_sensitivity,2024.2.4,None,2025-02-03 14h57.12.349030 -0500,
0.01,1,8,108,38,1,right,0.37265112495515496,None,1,38,108,46,97.4118970829295,,,,97.40220766700804,97.99977733299602,98.38035966700409,right,0.37265112495515496,None,demo,001,2025-02-03_14h57.04.486,contrast_sensitivity,2024.2.4,None,2025-02-03 14h57.12.349030 -0500,
1e-08,1,1,109,39,1,right,0.4560713330283761,None,1,39,109,0,98.3883483329555,,,,98.38267854193691,98.98349970800336,99.44760241697077,right,0.4560713330283761,None,demo,001,2025-02-03_14h57.04.486,contrast_sensitivity,2024.2.4,None,2025-02-03 14h57.12.349030 -0500,
0.01,-1,4,110,40,1,left,0.8879425410414115,None,1,40,110,39,99.45587225002237,,,,99.44988883298356,100.04537366703153,100.94738891697489,left,0.8879425410414115,None,demo,001,2025-02-03_14h57.04.486,contrast_sensitivity,2024.2.4,None,2025-02-03 14h57.12.349030 -0500,
1e-08,1,8,111,41,1,left,0.22608487505931407,None,1,41,111,42,100.95645458297804,,,,100.94949516700581,101.54523658298422,101.78105937503278,left,0.22608487505931407,None,demo,001,2025-02-03_14h57.04.486,contrast_sensitivity,2024.2.4,None,2025-02-03 14h57.12.349030 -0500,
1.0,-1,8,112,42,1,left,0.1407086659455672,None,1,42,112,55,101.7892532920232,,,,101.7834417920094,102.37755787500646,102.53004883299582,left,0.1407086659455672,None,demo,001,2025-02-03_14h57.04.486,contrast_sensitivity,2024.2.4,None,2025-02-03 14h57.12.349030 -0500,
1e-06,1,16,113,43,1,left,0.11276120797265321,None,1,43,113,57,102.5359564999817,,,,102.53175891702995,103.1275231250329,103.24615091702435,left,0.11276120797265321,None,demo,001,2025-02-03_14h57.04.486,contrast_sensitivity,2024.2.4,None,2025-02-03 14h57.12.349030 -0500,
0.0001,1,16,114,44,1,left,0.0031148329144343734,None,1,44,114,58,103.25206066702958,,,,103.24760491703637,103.84513087500818,103.85142279195134,left,0.0031148329144343734,None,demo,001,2025-02-03_14h57.04.486,contrast_sensitivity,2024.2.4,None,2025-02-03 14h57.12.349030 -0500,
0.001,-1,16,115,45,1,left,0.7721508749527857,None,1,45,115,66,103.86069374997169,,,,103.85364049999043,104.45415825000964,105.23094774992205,left,0.7721508749527857,None,demo,001,2025-02-03_14h57.04.486,contrast_sensitivity,2024.2.4,None,2025-02-03 14h57.12.349030 -0500,
0.001,-1,1,116,46,1,left,0.1154981239233166,None,1,46,116,10,105.24076950002927,,,,105.23394833295606,105.8287317919312,105.94729929196183,left,0.1154981239233166,None,demo,001,2025-02-03_14h57.04.486,contrast_sensitivity,2024.2.4,None,2025-02-03 14h57.12.349030 -0500,
1e-06,-1,8,117,47,1,left,0.08691962389275432,None,1,47,117,50,105.9559168749256,,,,105.94955541694071,106.54524991696235,106.63437279197387,left,0.08691962389275432,None,demo,001,2025-02-03_14h57.04.486,contrast_sensitivity,2024.2.4,None,2025-02-03 14h57.12.349030 -0500,
0.01,-1,8,118,48,1,left,0.12948970799334347,None,1,48,118,53,106.64492495800368,,,,106.63652087503579,107.23367862496525,107.38063137501013,left,0.12948970799334347,None,demo,001,2025-02-03_14h57.04.486,contrast_sensitivity,2024.2.4,None,2025-02-03 14h57.12.349030 -0500,
0.0001,-1,8,119,49,1,left,0.06942479207646102,None,1,49,119,51,107.39523537503555,,,,107.3828804580262,107.99974262493197,108.0809802080039,left,0.06942479207646102,None,demo,001,2025-02-03_14h57.04.486,contrast_sensitivity,2024.2.4,None,2025-02-03 14h57.12.349030 -0500,
0.001,-1,2,120,50,1,left,0.21962220803834498,None,1,50,120,24,108.08927783300169,,,,108.08296625001822,108.69551262492314,108.91789366700687,left,0.21962220803834498,None,demo,001,2025-02-03_14h57.04.486,contrast_sensitivity,2024.2.4,None,2025-02-03 14h57.12.349030 -0500,
0.01,1,16,121,51,1,right,0.34829250001348555,None,1,51,121,60,108.92817816697061,,,,108.92023162497208,109.52081862499472,109.88106041692663,right,0.34829250001348555,None,demo,001,2025-02-03_14h57.04.486,contrast_sensitivity,2024.2.4,None,2025-02-03 14h57.12.349030 -0500,
0.0001,-1,2,122,52,1,left,0.21822741604410112,None,1,52,122,23,109.88951195799746,,,,109.88328358298168,110.47794979193714,110.6987984169973,left,0.21822741604410112,None,demo,001,2025-02-03_14h57.04.486,contrast_sensitivity,2024.2.4,None,2025-02-03 14h57.12.349030 -0500,
0.0001,1,8,123,53,1,left,0.1302124580834061,None,1,53,123,44,110.71089437499177,,,,110.70020508300513,111.29786470800173,111.43257754202932,left,0.1302124580834061,None,demo,001,2025-02-03_14h57.04.486,contrast_sensitivity,2024.2.4,None,2025-02-03 14h57.12.349030 -0500,
1e-08,-1,8,124,54,1,left,0.06058995798230171,None,1,54,124,49,111.44409262493718,,,,111.43374633300118,112.02851124992594,112.09786049998365,left,0.06058995798230171,None,demo,001,2025-02-03_14h57.04.486,contrast_sensitivity,2024.2.4,None,2025-02-03 14h57.12.349030 -0500,
0.001,1,4,125,55,1,left,0.19084049994125962,None,1,55,125,31,112.10708870796952,,,,112.10013575002085,112.69521816703491,112.88775208301377,left,0.19084049994125962,None,demo,001,2025-02-03_14h57.04.486,contrast_sensitivity,2024.2.4,None,2025-02-03 14h57.12.349030 -0500,
0.1,-1,1,126,56,1,left,0.1906904160277918,None,1,56,126,12,112.8938809579704,,,,112.88914029195439,113.48042316699866,113.68085662496742,left,0.1906904160277918,None,demo,001,2025-02-03_14h57.04.486,contrast_sensitivity,2024.2.4,None,2025-02-03 14h57.12.349030 -0500,
0.1,-1,16,127,57,1,left,0.07932449993677437,None,1,57,127,68,113.68925624992698,,,,113.68273370794486,114.27873895794619,114.36366612499114,left,0.07932449993677437,None,demo,001,2025-02-03_14h57.04.486,contrast_sensitivity,2024.2.4,None,2025-02-03 14h57.12.349030 -0500,
0.01,-1,2,128,58,1,left,0.06512341706547886,None,1,58,128,25,114.37212454201654,,,,114.36577862501144,114.96190179197583,115.0315088329371,left,0.06512341706547886,None,demo,001,2025-02-03_14h57.04.486,contrast_sensitivity,2024.2.4,None,2025-02-03 14h57.12.349030 -0500,
1.0,1,16,129,59,1,right,0.1627272079931572,None,1,59,129,62,115.03954937495291,,,,115.03378858300857,115.62839987501502,115.7970148329623,right,0.1627272079931572,None,demo,001,2025-02-03_14h57.04.486,contrast_sensitivity,2024.2.4,None,2025-02-03 14h57.12.349030 -0500,
0.001,1,2,130,60,1,right,0.09973541600629687,None,1,60,130,17,115.80574749992229,,,,115.79928549996112,116.3952340829419,116.49778291699477,right,0.09973541600629687,None,demo,001,2025-02-03_14h57.04.486,contrast_sensitivity,2024.2.4,None,2025-02-03 14h57.12.349030 -0500,
0.01,-1,1,131,61,1,left,0.2876798330107704,None,1,61,131,11,116.50698487495538,,,,116.5001025829697,117.0952385829296,117.39599604194518,left,0.2876798330107704,None,demo,001,2025-02-03_14h57.04.486,contrast_sensitivity,2024.2.4,None,2025-02-03 14h57.12.349030 -0500,
1e-06,-1,16,132,62,1,left,0.0955386240966618,None,1,62,132,64,117.40199629194103,,,,117.39738712494727,117.98345737496857,118.08522020792589,left,0.0955386240966618,None,demo,001,2025-02-03_14h57.04.486,contrast_sensitivity,2024.2.4,None,2025-02-03 14h57.12.349030 -0500,
0.0001,1,1,133,63,1,left,0.0441777080995962,None,1,63,133,2,118.09484899998643,,,,118.08672849996947,118.68175354192499,118.72961279202718,left,0.0441777080995962,None,demo,001,2025-02-03_14h57.04.486,contrast_sensitivity,2024.2.4,None,2025-02-03 14h57.12.349030 -0500,
1e-06,1,4,134,64,1,left,0.1884182500652969,None,1,64,134,29,118.73528183298185,,,,118.73116224992555,119.32747304195073,119.529372583027,left,0.1884182500652969,None,demo,001,2025-02-03_14h57.04.486,contrast_sensitivity,2024.2.4,None,2025-02-03 14h57.12.349030 -0500,
1e-08,-1,1,135,65,1,left,0.4438230419764295,None,1,65,135,7,119.53571920795366,,,,119.53091620793566,120.11634979199152,120.56413170800079,left,0.4438230419764295,None,demo,001,2025-02-03_14h57.04.486,contrast_sensitivity,2024.2.4,None,2025-02-03 14h57.12.349030 -0500,
0.01,1,4,136,66,1,left,0.5579724579583853,None,1,66,136,32,120.5723601669306,,,,120.56676595797762,121.16185562498868,121.730415332946,left,0.5579724579583853,None,demo,001,2025-02-03_14h57.04.486,contrast_sensitivity,2024.2.4,None,2025-02-03 14h57.12.349030 -0500,
0.001,1,8,137,67,1,right,0.5662766660097986,None,1,67,137,45,121.73931520793121,,,,121.73261445795652,122.32854708295781,122.89743112493306,right,0.5662766660097986,None,demo,001,2025-02-03_14h57.04.486,contrast_sensitivity,2024.2.4,None,2025-02-03 14h57.12.349030 -0500,
0.0001,1,4,138,68,1,left,0.3358184159733355,None,1,68,138,30,122.90562612493522,,,,122.89938474993687,123.49998774996493,123.84783266694285,left,0.3358184159733355,None,demo,001,2025-02-03_14h57.04.486,contrast_sensitivity,2024.2.4,None,2025-02-03 14h57.12.349030 -0500,
1.0,-1,16,139,69,1,left,0.4227154159452766,None,1,69,139,69,123.85575037496164,,,,123.85003395797685,124.44507775001694,124.88041799992789,left,0.4227154159452766,None,demo,001,2025-02-03_14h57.04.486,contrast_sensitivity,2024.2.4,None,2025-02-03 14h57.12.349030 -0500,
1e-06,-1,2,140,0,2,left,0.20310208306182176,None,2,0,140,22,124.88969179196283,,,,124.88291645795107,125.47861470794305,125.68464283295907,left,0.20310208306182176,None,demo,001,2025-02-03_14h57.04.486,contrast_sensitivity,2024.2.4,None,2025-02-03 14h57.12.349030 -0500,
0.001,1,2,141,1,2,left,0.3239275829400867,None,2,1,141,17,125.69478391692974,,,,125.68701362493448,126.28285933297593,126.61369779193774,left,0.3239275829400867,None,demo,001,2025-02-03_14h57.04.486,contrast_sensitivity,2024.2.4,None,2025-02-03 14h57.12.349030 -0500,
0.001,-1,16,142,2,2,left,0.30282483296468854,None,2,2,142,66,126.62146445794497,,,,126.61574087501504,127.21086833300069,127.51659287500661,left,0.30282483296468854,None,demo,001,2025-02-03_14h57.04.486,contrast_sensitivity,2024.2.4,None,2025-02-03 14h57.12.349030 -0500,
0.0001,1,4,143,3,2,right,0.35876433306839317,None,2,3,143,30,127.52774637495168,,,,127.51800899999216,128.11205616698135,128.4810008329805,right,0.35876433306839317,None,demo,001,2025-02-03_14h57.04.486,contrast_sensitivity,2024.2.4,None,2025-02-03 14h57.12.349030 -0500,
0.01,1,2,144,4,2,left,0.3602220000466332,None,2,4,144,18,128.48917445796542,,,,128.48341024992988,129.07849904196337,129.44687537499703,left,0.3602220000466332,None,demo,001,2025-02-03_14h57.04.486,contrast_sensitivity,2024.2.4,None,2025-02-03 14h57.12.349030 -0500,
1.0,1,2,145,5,2,right,0.3814715000335127,None,2,5,145,20,129.45552658301312,,,,129.4488272080198,130.04517499997746,130.43057691701688,right,0.3814715000335127,None,demo,001,2025-02-03_14h57.04.486,contrast_sensitivity,2024.2.4,None,2025-02-03 14h57.12.349030 -0500,
0.01,1,8,146,6,2,left,0.35493962396867573,None,2,6,146,46,130.4379757499555,,,,130.43257499998435,131.02868833299726,131.39746420795564,left,0.35493962396867573,None,demo,001,2025-02-03_14h57.04.486,contrast_sensitivity,2024.2.4,None,2025-02-03 14h57.12.349030 -0500,
1e-08,1,2,147,7,2,left,0.49657399905845523,None,2,7,147,14,131.41187308297958,,,,131.3990452500293,131.9951374999946,132.4964466249803,left,0.49657399905845523,None,demo,001,2025-02-03_14h57.04.486,contrast_sensitivity,2024.2.4,None,2025-02-03 14h57.12.349030 -0500,
1e-06,-1,8,148,8,2,left,0.3769335000542924,None,2,8,148,50,132.50214458303526,,,,132.49771441693883,133.09573283302598,133.48102266702335,left,0.3769335000542924,None,demo,001,2025-02-03_14h57.04.486,contrast_sensitivity,2024.2.4,None,2025-02-03 14h57.12.349030 -0500,
1.0,-1,16,149,9,2,left,0.4359188749222085,None,2,9,149,69,133.4888611669885,,,,133.4833878329955,134.07860104192514,134.51819383294787,left,0.4359188749222085,None,demo,001,2025-02-03_14h57.04.486,contrast_sensitivity,2024.2.4,None,2025-02-03 14h57.12.349030 -0500,
1e-08,1,4,150,10,2,left,0.5131207919912413,None,2,10,150,28,134.52818208292592,,,,134.52060391695704,135.11538183293305,135.63239475002047,left,0.5131207919912413,None,demo,001,2025-02-03_14h57.04.486,contrast_sensitivity,2024.2.4,None,2025-02-03 14h57.12.349030 -0500,
0.001,1,16,151,11,2,right,0.614116916898638,None,2,11,151,59,135.6441600000253,,,,135.63372316700406,136.2285610419931,136.8472719580168,right,0.614116916898638,None,demo,001,2025-02-03_14h57.04.486,contrast_sensitivity,2024.2.4,None,2025-02-03 14h57.12.349030 -0500,
0.001,-1,4,152,12,2,left,0.2871141249779612,None,2,12,152,38,136.85534554196056,,,,136.84957399999257,137.44433654192835,137.73503312503453,left,0.2871141249779612,None,demo,001,2025-02-03_14h57.04.486,contrast_sensitivity,2024.2.4,None,2025-02-03 14h57.12.349030 -0500,
1e-08,-1,1,153,13,2,left,1.109899332979694,None,2,13,153,7,137.74395516701043,,,,137.7371641669888,138.345544999931,139.46479745802935,left,1.109899332979694,None,demo,001,2025-02-03_14h57.04.486,contrast_sensitivity,2024.2.4,None,2025-02-03 14h57.12.349030 -0500,
0.1,-1,8,154,14,2,left,0.36844558303710073,None,2,14,154,54,139.47844133293256,,,,139.4671247919323,140.06194079201669,140.43511691701133,left,0.36844558303710073,None,demo,001,2025-02-03_14h57.04.486,contrast_sensitivity,2024.2.4,None,2025-02-03 14h57.12.349030 -0500,
0.0001,1,16,155,15,2,left,0.41462866601068527,None,2,15,155,58,140.44473395799287,,,,140.4376248329645,141.03278920799494,141.4560007499531,left,0.41462866601068527,None,demo,001,2025-02-03_14h57.04.486,contrast_sensitivity,2024.2.4,None,2025-02-03 14h57.12.349030 -0500,
0.0001,1,8,156,16,2,left,0.404385874979198,None,2,16,156,44,141.47843737492803,,,,141.45733233296778,142.05009812500793,142.4638176249573,left,0.404385874979198,None,demo,001,2025-02-03_14h57.04.486,contrast_sensitivity,2024.2.4,None,2025-02-03 14h57.12.349030 -0500,
0.01,-1,16,157,17,2,left,0.3264513749163598,None,2,17,157,67,142.4722327500349,,,,142.46632629202213,143.06084812502377,143.3959902919596,left,0.3264513749163598,None,demo,001,2025-02-03_14h57.04.486,contrast_sensitivity,2024.2.4,None,2025-02-03 14h57.12.349030 -0500,
0.01,-1,4,158,18,2,left,0.267515082960017,None,2,18,158,39,143.4014840000309,,,,143.3974309170153,143.9947273749858,144.26611924997997,left,0.267515082960017,None,demo,001,2025-02-03_14h57.04.486,contrast_sensitivity,2024.2.4,None,2025-02-03 14h57.12.349030 -0500,
0.001,-1,8,159,19,2,left,0.29118062497582287,None,2,19,159,52,144.27810200001113,,,,144.2673517499352,144.87918716692366,145.18083874997683,left,0.29118062497582287,None,demo,001,2025-02-03_14h57.04.486,contrast_sensitivity,2024.2.4,None,2025-02-03 14h57.12.349030 -0500,
0.1,1,16,160,20,2,right,0.27469337405636907,None,2,20,160,61,145.18987654196098,,,,145.18300433293916,145.77858683292288,146.06372008298058,right,0.27469337405636907,None,demo,001,2025-02-03_14h57.04.486,contrast_sensitivity,2024.2.4,None,2025-02-03 14h57.12.349030 -0500,
1.0,1,8,161,21,2,right,0.14150595804676414,None,2,21,161,48,146.0722163330065,,,,146.0661479999544,146.66174529201817,146.81407508300617,right,0.14150595804676414,None,demo,001,2025-02-03_14h57.04.486,contrast_sensitivity,2024.2.4,None,2025-02-03 14h57.12.349030 -0500,
0.0001,-1,4,162,22,2,left,0.33127929107286036,None,2,22,162,37,146.82272549998015,,,,146.81633608299308,147.41195787501056,147.74736116698477,left,0.33127929107286036,None,demo,001,2025-02-03_14h57.04.486,contrast_sensitivity,2024.2.4,None,2025-02-03 14h57.12.349030 -0500,
0.0001,-1,8,163,23,2,left,0.08905441593378782,None,2,23,163,51,147.75613366696052,,,,147.7496319579659,148.34515312500298,148.44732508296147,left,0.08905441593378782,None,demo,001,2025-02-03_14h57.04.486,contrast_sensitivity,2024.2.4,None,2025-02-03 14h57.12.349030 -0500,
1e-06,-1,1,164,24,2,left,0.36679025006014854,None,2,24,164,8,148.45637483301107,,,,148.44961245800368,149.04536383296363,149.4181516249664,left,0.36679025006014854,None,demo,001,2025-02-03_14h57.04.486,contrast_sensitivity,2024.2.4,None,2025-02-03 14h57.12.349030 -0500,
0.0001,-1,16,165,25,2,left,0.231335791060701,None,2,25,165,65,149.42813187499996,,,,149.42047337500844,150.02885579201393,150.2645993749611,left,0.231335791060701,None,demo,001,2025-02-03_14h57.04.486,contrast_sensitivity,2024.2.4,None,2025-02-03 14h57.12.349030 -0500,
1e-06,1,16,166,26,2,right,0.5274009159766138,None,2,26,166,57,150.27309412497561,,,,150.26672208297532,150.8617283749627,151.39714612497482,right,0.5274009159766138,None,demo,001,2025-02-03_14h57.04.486,contrast_sensitivity,2024.2.4,None,2025-02-03 14h57.12.349030 -0500,
0.001,-1,1,167,27,2,left,0.18874333298299462,None,2,27,167,10,151.4036787499208,,,,151.39891708292998,151.99436704197433,152.19624620792456,left,0.18874333298299462,None,demo,001,2025-02-03_14h57.04.486,contrast_sensitivity,2024.2.4,None,2025-02-03 14h57.12.349030 -0500,
1e-08,-1,16,168,28,2,left,0.5037623329553753,None,2,28,168,63,152.2031052079983,,,,152.19825437502004,152.79900558292866,153.31451966695022,left,0.5037623329553753,None,demo,001,2025-02-03_14h57.04.486,contrast_sensitivity,2024.2.4,None,2025-02-03 14h57.12.349030 -0500,
1e-06,1,4,169,29,2,left,0.3772389990044758,None,2,29,169,29,153.32280945801176,,,,153.31695395801216,153.91185408295132,154.29780724993907,left,0.3772389990044758,None,demo,001,2025-02-03_14h57.04.486,contrast_sensitivity,2024.2.4,None,2025-02-03 14h57.12.349030 -0500,
1.0,1,4,170,30,2,right,0.06709758297074586,None,2,30,170,34,154.30657537502702,,,,154.30022654193453,154.89596450002864,154.9808934580069,right,0.06709758297074586,None,demo,001,2025-02-03_14h57.04.486,contrast_sensitivity,2024.2.4,None,2025-02-03 14h57.12.349030 -0500,
1e-06,1,8,171,31,2,left,0.1705399170750752,None,2,31,171,43,154.9954891669331,,,,154.98320479202084,155.5784816669766,155.7513737080153,left,0.1705399170750752,None,demo,001,2025-02-03_14h57.04.486,contrast_sensitivity,2024.2.4,None,2025-02-03 14h57.12.349030 -0500,
1e-08,-1,8,172,32,2,right,0.4261768750147894,None,2,32,172,49,155.76146254199557,,,,155.7536160829477,156.35091279202607,156.78106599999592,right,0.4261768750147894,None,demo,001,2025-02-03_14h57.04.486,contrast_sensitivity,2024.2.4,None,2025-02-03 14h57.12.349030 -0500,
1e-08,1,1,173,33,2,left,0.12570316600613296,None,2,33,173,0,156.7898042500019,,,,156.78320487495512,157.37844200001564,157.51448341703508,left,0.12570316600613296,None,demo,001,2025-02-03_14h57.04.486,contrast_sensitivity,2024.2.4,None,2025-02-03 14h57.12.349030 -0500,
0.001,1,4,174,34,2,left,0.317305582924746,None,2,34,174,31,157.52251987496857,,,,157.5168978329748,158.11167574999854,158.43180975003634,left,0.317305582924746,None,demo,001,2025-02-03_14h57.04.486,contrast_sensitivity,2024.2.4,None,2025-02-03 14h57.12.349030 -0500,
1e-08,-1,4,175,35,2,left,0.07863416592590511,None,2,35,175,35,158.4452581249643,,,,158.43397770798765,159.02865991694853,159.11373783298768,left,0.07863416592590511,None,demo,001,2025-02-03_14h57.04.486,contrast_sensitivity,2024.2.4,None,2025-02-03 14h57.12.349030 -0500,
1e-06,-1,4,176,36,2,left,0.32809108297806233,None,2,36,176,36,159.12239329202566,,,,159.11571066698525,159.71083504194394,160.0457980829524,left,0.32809108297806233,None,demo,001,2025-02-03_14h57.04.486,contrast_sensitivity,2024.2.4,None,2025-02-03 14h57.12.349030 -0500,
0.1,1,8,177,37,2,right,0.19216254097409546,None,2,37,177,47,160.0516808750108,,,,160.04740220797248,160.6487847500248,160.84789987502154,right,0.19216254097409546,None,demo,001,2025-02-03_14h57.04.486,contrast_sensitivity,2024.2.4,None,2025-02-03 14h57.12.349030 -0500,
0.001,1,1,178,38,2,right,0.3515938740456477,None,2,38,178,3,160.86191112501547,,,,160.85025029198732,161.4453093749471,161.801245791954,right,0.3515938740456477,None,demo,001,2025-02-03_14h57.04.486,contrast_sensitivity,2024.2.4,None,2025-02-03 14h57.12.349030 -0500,
0.0001,-1,1,179,39,2,left,0.31309929105918854,None,2,39,179,9,161.81145241693594,,,,161.80356475000735,162.39979766693432,162.72047874995042,left,0.31309929105918854,None,demo,001,2025-02-03_14h57.04.486,contrast_sensitivity,2024.2.4,None,2025-02-03 14h57.12.349030 -0500,
0.01,-1,1,180,40,2,left,0.2093532079597935,None,2,40,180,11,162.72808549995534,,,,162.72182654193603,163.31663466698956,163.5310623330297,left,0.2093532079597935,None,demo,001,2025-02-03_14h57.04.486,contrast_sensitivity,2024.2.4,None,2025-02-03 14h57.12.349030 -0500,
1e-06,1,2,181,41,2,right,0.272405874915421,None,2,41,181,15,163.53849966695998,,,,163.53324266697746,164.12842512503266,164.4059298329521,right,0.272405874915421,None,demo,001,2025-02-03_14h57.04.486,contrast_sensitivity,2024.2.4,None,2025-02-03 14h57.12.349030 -0500,
0.0001,1,1,182,42,2,right,0.1806335001019761,None,2,42,182,2,164.41496420803014,,,,164.40728158294223,165.00024683296215,165.1846513749333,right,0.1806335001019761,None,demo,001,2025-02-03_14h57.04.486,contrast_sensitivity,2024.2.4,None,2025-02-03 14h57.12.349030 -0500,
0.1,-1,16,183,43,2,left,0.07872337498702109,None,2,43,183,68,165.19476870796643,,,,165.18676499999128,165.78309808298945,165.86457770795096,left,0.07872337498702109,None,demo,001,2025-02-03_14h57.04.486,contrast_sensitivity,2024.2.4,None,2025-02-03 14h57.12.349030 -0500,
0.1,-1,1,184,44,2,left,0.15248637506738305,None,2,44,184,12,165.87376458302606,,,,165.86685291700996,166.46228520793375,166.61825287493411,left,0.15248637506738305,None,demo,001,2025-02-03_14h57.04.486,contrast_sensitivity,2024.2.4,None,2025-02-03 14h57.12.349030 -0500,
0.0001,1,2,185,45,2,left,0.05933099996764213,None,2,45,185,16,166.62813291698694,,,,166.6206021249527,167.21245174994692,167.2795832080301,left,0.05933099996764213,None,demo,001,2025-02-03_14h57.04.486,contrast_sensitivity,2024.2.4,None,2025-02-03 14h57.12.349030 -0500,
0.1,-1,2,186,46,2,left,0.19088816596195102,None,2,46,186,26,167.2852853749646,,,,167.28080395795405,167.87782941700425,168.07909012492746,left,0.19088816596195102,None,demo,001,2025-02-03_14h57.04.486,contrast_sensitivity,2024.2.4,None,2025-02-03 14h57.12.349030 -0500,
1.0,-1,2,187,47,2,left,0.16164316597860307,None,2,47,187,27,168.08528316696174,,,,168.08046187495347,168.66708279203158,168.8376040830044,left,0.16164316597860307,None,demo,001,2025-02-03_14h57.04.486,contrast_sensitivity,2024.2.4,None,2025-02-03 14h57.12.349030 -0500,
0.1,-1,4,188,48,2,left,0.21713887492660433,None,2,48,188,40,168.84397187503055,,,,168.8399518749211,169.4335753750056,169.6656850000145,left,0.21713887492660433,None,demo,001,2025-02-03_14h57.04.486,contrast_sensitivity,2024.2.4,None,2025-02-03 14h57.12.349030 -0500,
0.01,1,4,189,49,2,left,0.4139170830603689,None,2,49,189,32,169.67847666703165,,,,169.668823666987,170.26178850000724,170.68081941700075,left,0.4139170830603689,None,demo,001,2025-02-03_14h57.04.486,contrast_sensitivity,2024.2.4,None,2025-02-03 14h57.12.349030 -0500,
1.0,1,1,190,50,2,right,0.04311941599007696,None,2,50,190,6,170.687080624979,,,,170.68284037499689,171.27867133298423,171.3308496249374,right,0.04311941599007696,None,demo,001,2025-02-03_14h57.04.486,contrast_sensitivity,2024.2.4,None,2025-02-03 14h57.12.349030 -0500,
0.01,-1,8,191,51,2,left,0.13376166601665318,None,2,51,191,53,171.33815941703506,,,,171.33306400000583,171.92838708299678,172.0682621669257,left,0.13376166601665318,None,demo,001,2025-02-03_14h57.04.486,contrast_sensitivity,2024.2.4,None,2025-02-03 14h57.12.349030 -0500,
1e-06,1,1,192,52,2,left,0.30094020802062005,None,2,52,192,1,172.07730383297894,,,,172.07033345801756,172.66471562499646,172.96771220793016,left,0.30094020802062005,None,demo,001,2025-02-03_14h57.04.486,contrast_sensitivity,2024.2.4,None,2025-02-03 14h57.12.349030 -0500,
0.0001,-1,2,193,53,2,left,0.18698245799168944,None,2,53,193,23,172.97809758293442,,,,172.9703896669671,173.56688662501983,173.76419379201252,left,0.18698245799168944,None,demo,001,2025-02-03_14h57.04.486,contrast_sensitivity,2024.2.4,None,2025-02-03 14h57.12.349030 -0500,
1e-08,1,16,194,54,2,left,0.2057137080701068,None,2,54,194,56,173.77279670792632,,,,173.76658937497996,174.3618790420005,174.58134887495544,left,0.2057137080701068,None,demo,001,2025-02-03_14h57.04.486,contrast_sensitivity,2024.2.4,None,2025-02-03 14h57.12.349030 -0500,
1e-08,1,8,195,55,2,left,0.7681953749852255,None,2,55,195,42,174.58965883299243,,,,174.58376833295915,175.1783492079703,175.9488827920286,left,0.7681953749852255,None,demo,001,2025-02-03_14h57.04.486,contrast_sensitivity,2024.2.4,None,2025-02-03 14h57.12.349030 -0500,
0.01,-1,2,196,56,2,left,0.586196165997535,None,2,56,196,25,175.96074570796918,,,,175.9501593329478,176.54442112497054,177.13420616695657,left,0.586196165997535,None,demo,001,2025-02-03_14h57.04.486,contrast_sensitivity,2024.2.4,None,2025-02-03 14h57.12.349030 -0500,
1.0,1,16,197,57,2,right,0.16534154198598117,None,2,57,197,62,177.1477579169441,,,,177.13586137501989,177.73286195797846,177.91434949997347,right,0.16534154198598117,None,demo,001,2025-02-03_14h57.04.486,contrast_sensitivity,2024.2.4,None,2025-02-03 14h57.12.349030 -0500,
1e-08,-1,2,198,58,2,left,0.9177771249087527,None,2,58,198,21,177.9285404169932,,,,177.91666024993174,178.511754832929,179.43480204197112,left,0.9177771249087527,None,demo,001,2025-02-03_14h57.04.486,contrast_sensitivity,2024.2.4,None,2025-02-03 14h57.12.349030 -0500,
0.1,1,2,199,59,2,right,0.10143012506887317,None,2,59,199,19,179.44480016699526,,,,179.43696149997413,180.03308337496128,180.14706274995115,right,0.10143012506887317,None,demo,001,2025-02-03_14h57.04.486,contrast_sensitivity,2024.2.4,None,2025-02-03 14h57.12.349030 -0500,
0.01,1,1,200,60,2,right,0.24389341694768518,None,2,60,200,4,180.15408370795194,,,,180.14942295802757,180.74580129201058,180.99764650000725,right,0.24389341694768518,None,demo,001,2025-02-03_14h57.04.486,contrast_sensitivity,2024.2.4,None,2025-02-03 14h57.12.349030 -0500,
1.0,-1,1,201,61,2,left,0.5474842080147937,None,2,61,201,13,181.0067580420291,,,,180.99997329199687,181.59498058294412,182.14659699995536,left,0.5474842080147937,None,demo,001,2025-02-03_14h57.04.486,contrast_sensitivity,2024.2.4,None,2025-02-03 14h57.12.349030 -0500,
0.001,1,8,202,62,2,left,0.7171686659567058,None,2,62,202,45,182.15253054199275,,,,182.148124792031,182.74521600001026,183.46505866700318,left,0.7171686659567058,None,demo,001,2025-02-03_14h57.04.486,contrast_sensitivity,2024.2.4,None,2025-02-03 14h57.12.349030 -0500,
0.001,-1,2,203,63,2,left,0.218609832925722,None,2,63,203,24,183.4781804169761,,,,183.4662278329488,184.06102529203054,184.28197449992876,left,0.218609832925722,None,demo,001,2025-02-03_14h57.04.486,contrast_sensitivity,2024.2.4,None,2025-02-03 14h57.12.349030 -0500,
1.0,-1,4,204,64,2,left,0.34084329090546817,None,2,64,204,41,184.29406724998262,,,,184.28336816700175,184.87850370793603,185.23064299998805,left,0.34084329090546817,None,demo,001,2025-02-03_14h57.04.486,contrast_sensitivity,2024.2.4,None,2025-02-03 14h57.12.349030 -0500,
0.01,1,16,205,65,2,left,0.5167386669199914,None,2,65,205,60,185.23880233301315,,,,185.2326455420116,185.8285634169588,186.34786066692322,left,0.5167386669199914,None,demo,001,2025-02-03_14h57.04.486,contrast_sensitivity,2024.2.4,None,2025-02-03 14h57.12.349030 -0500,
1e-06,-1,16,206,66,2,right,0.2809475410031155,None,2,66,206,64,186.35592141700909,,,,186.35027279192582,186.9444777079625,187.2303899580147,right,0.2809475410031155,None,demo,001,2025-02-03_14h57.04.486,contrast_sensitivity,2024.2.4,None,2025-02-03 14h57.12.349030 -0500,
0.1,1,4,207,67,2,right,0.267914165975526,None,2,67,207,33,187.23908608302008,,,,187.23269166692626,187.8283980829874,188.10181987495162,right,0.267914165975526,None,demo,001,2025-02-03_14h57.04.486,contrast_sensitivity,2024.2.4,None,2025-02-03 14h57.12.349030 -0500,
0.1,1,1,208,68,2,right,0.19218070805072784,None,2,68,208,5,188.11050566693302,,,,188.10390624997672,188.69924474996515,188.89789645792916,right,0.19218070805072784,None,demo,001,2025-02-03_14h57.04.486,contrast_sensitivity,2024.2.4,None,2025-02-03 14h57.12.349030 -0500,
1.0,-1,8,209,69,2,left,0.2921759579330683,None,2,69,209,55,188.90516183292493,,,,188.9001917919377,189.49519887496717,189.79778633301612,left,0.2921759579330683,None,demo,001,2025-02-03_14h57.04.486,contrast_sensitivity,2024.2.4,None,2025-02-03 14h57.12.349030 -0500,
1.0,-1,1,210,0,3,left,0.46057762403506786,None,3,0,210,13,189.80661183292978,,,,189.8002329999581,190.3956591669703,190.86442241701297,left,0.46057762403506786,None,demo,001,2025-02-03_14h57.04.486,contrast_sensitivity,2024.2.4,None,2025-02-03 14h57.12.349030 -0500,
0.1,-1,2,211,1,3,left,0.3922220409149304,None,3,1,211,26,190.87242612498812,,,,190.86669499997515,191.46194587496575,191.86210970801767,left,0.3922220409149304,None,demo,001,2025-02-03_14h57.04.486,contrast_sensitivity,2024.2.4,None,2025-02-03 14h57.12.349030 -0500,
0.01,-1,4,212,2,3,left,0.2183175419922918,None,3,2,212,39,191.8674491669517,,,,191.86348716693465,192.46085645793937,192.68305966700427,left,0.2183175419922918,None,demo,001,2025-02-03_14h57.04.486,contrast_sensitivity,2024.2.4,None,2025-02-03 14h57.12.349030 -0500,
0.1,-1,8,213,3,3,left,0.14120674901641905,None,3,3,213,54,192.69409104192164,,,,192.6844049169449,193.2779732919298,193.43040712492075,left,0.14120674901641905,None,demo,001,2025-02-03_14h57.04.486,contrast_sensitivity,2024.2.4,None,2025-02-03 14h57.12.349030 -0500,
0.0001,1,4,214,4,3,left,0.963322333060205,None,3,4,214,30,193.4390630000271,,,,193.43288337497506,194.02880579198245,194.99798966699746,left,0.963322333060205,None,demo,001,2025-02-03_14h57.04.486,contrast_sensitivity,2024.2.4,None,2025-02-03 14h57.12.349030 -0500,
0.001,1,8,215,5,3,left,0.6800436249468476,None,3,5,215,45,195.00691724999342,,,,195.00030537496787,195.59508599992841,196.2808420829242,left,0.6800436249468476,None,demo,001,2025-02-03_14h57.04.486,contrast_sensitivity,2024.2.4,None,2025-02-03 14h57.12.349030 -0500,
0.1,1,4,216,6,3,right,0.0824322080006823,None,3,6,216,33,196.2891865419224,,,,196.28301370795816,196.87867416697554,196.9642036249861,right,0.0824322080006823,None,demo,001,2025-02-03_14h57.04.486,contrast_sensitivity,2024.2.4,None,2025-02-03 14h57.12.349030 -0500,
0.0001,1,2,217,7,3,right,0.9642322500003502,None,3,7,217,16,196.97862116701435,,,,196.96617433300707,197.56183216697536,198.53399120795075,right,0.9642322500003502,None,demo,001,2025-02-03_14h57.04.486,contrast_sensitivity,2024.2.4,None,2025-02-03 14h57.12.349030 -0500,
1e-08,-1,8,218,8,3,left,0.28987624996807426,None,3,8,218,49,198.54508374992292,,,,198.5352017499972,199.12813620793168,199.43126204202417,left,0.28987624996807426,None,demo,001,2025-02-03_14h57.04.486,contrast_sensitivity,2024.2.4,None,2025-02-03 14h57.12.349030 -0500,
1e-08,-1,2,219,9,3,left,0.9535526669351384,None,3,9,219,21,199.43973333295435,,,,199.4337724170182,200.0274160419358,200.98439341702033,left,0.9535526669351384,None,demo,001,2025-02-03_14h57.04.486,contrast_sensitivity,2024.2.4,None,2025-02-03 14h57.12.349030 -0500,
1.0,-1,4,220,10,3,left,0.36540470796171576,None,3,10,220,41,200.99469091696665,,,,200.9862916249549,201.58286083303392,201.9626434999518,left,0.36540470796171576,None,demo,001,2025-02-03_14h57.04.486,contrast_sensitivity,2024.2.4,None,2025-02-03 14h57.12.349030 -0500,
1e-08,1,4,221,11,3,left,0.7828331659547985,None,3,11,221,28,201.96846745803487,,,,201.9638444170123,202.56208416703157,203.34750274999533,left,0.7828331659547985,None,demo,001,2025-02-03_14h57.04.486,contrast_sensitivity,2024.2.4,None,2025-02-03 14h57.12.349030 -0500,
0.01,-1,1,222,12,3,left,1.2027204990154132,None,3,12,222,11,203.35608779196627,,,,203.34981370798778,203.9451598749729,205.15086458297446,left,1.2027204990154132,None,demo,001,2025-02-03_14h57.04.486,contrast_sensitivity,2024.2.4,None,2025-02-03 14h57.12.349030 -0500,
0.0001,1,1,223,13,3,left,0.3768287079874426,None,3,13,223,2,205.1616956249345,,,,205.15308854193427,205.74518491700292,206.130757582956,left,0.3768287079874426,None,demo,001,2025-02-03_14h57.04.486,contrast_sensitivity,2024.2.4,None,2025-02-03 14h57.12.349030 -0500,
1.0,-1,2,224,14,3,left,0.6740874170791358,None,3,14,224,27,206.1396106670145,,,,206.13293854193762,206.74587091698777,207.42920216696803,left,0.6740874170791358,None,demo,001,2025-02-03_14h57.04.486,contrast_sensitivity,2024.2.4,None,2025-02-03 14h57.12.349030 -0500,
1.0,1,8,225,15,3,right,0.33022916596382856,None,3,15,225,48,207.4361280419398,,,,207.4306782919448,208.02757783292327,208.36239525000565,right,0.33022916596382856,None,demo,001,2025-02-03_14h57.04.486,contrast_sensitivity,2024.2.4,None,2025-02-03 14h57.12.349030 -0500,
0.0001,-1,2,226,16,3,left,5.600989707978442,None,3,16,226,23,208.36806312494446,,,,208.36363566701766,208.9607768750284,214.56473195797298,left,5.600989707978442,None,demo,001,2025-02-03_14h57.04.486,contrast_sensitivity,2024.2.4,None,2025-02-03 14h57.12.349030 -0500,
1e-06,-1,8,227,17,3,left,0.6768535419832915,None,3,17,227,50,214.5725746669341,,,,214.56710991694126,215.16150420799386,215.84763770794962,left,0.6768535419832915,None,demo,001,2025-02-03_14h57.04.486,contrast_sensitivity,2024.2.4,None,2025-02-03 14h57.12.349030 -0500,
1e-08,-1,1,228,18,3,left,2.0840354580432177,None,3,18,228,7,215.85616224992555,,,,215.8496729999315,216.44415520795155,218.5311396670295,left,2.0840354580432177,None,demo,001,2025-02-03_14h57.04.486,contrast_sensitivity,2024.2.4,None,2025-02-03 14h57.12.349030 -0500,
0.001,1,16,229,19,3,left,0.9197032080264762,None,3,19,229,59,218.54025324992836,,,,218.53409708302934,219.12841708294582,220.05129562492948,left,0.9197032080264762,None,demo,001,2025-02-03_14h57.04.486,contrast_sensitivity,2024.2.4,None,2025-02-03 14h57.12.349030 -0500,
1e-06,-1,4,230,20,3,left,0.4006091660121456,None,3,20,230,36,220.0614077920327,,,,220.05380762496497,220.64949350000825,221.06418266694527,left,0.4006091660121456,None,demo,001,2025-02-03_14h57.04.486,contrast_sensitivity,2024.2.4,None,2025-02-03 14h57.12.349030 -0500,
0.0001,1,16,231,21,3,left,0.2642094161128625,None,3,21,231,58,221.0815892079845,,,,221.06639612501021,221.66196533292532,221.93106729199644,left,0.2642094161128625,None,demo,001,2025-02-03_14h57.04.486,contrast_sensitivity,2024.2.4,None,2025-02-03 14h57.12.349030 -0500,
0.1,1,16,232,22,3,right,0.13952870795037597,None,3,22,232,61,221.93990383297205,,,,221.9338418749394,222.5285336249508,222.67993533296976,right,0.13952870795037597,None,demo,001,2025-02-03_14h57.04.486,contrast_sensitivity,2024.2.4,None,2025-02-03 14h57.12.349030 -0500,
0.01,1,16,233,23,3,right,0.5164867079583928,None,3,23,233,60,222.6951171249384,,,,222.68135374994017,223.27859158301726,223.79845833301079,right,0.5164867079583928,None,demo,001,2025-02-03_14h57.04.486,contrast_sensitivity,2024.2.4,None,2025-02-03 14h57.12.349030 -0500,
1e-06,-1,1,234,24,3,left,0.3731567499926314,None,3,24,234,8,223.81172624998726,,,,223.80084470799193,224.3948260420002,224.77934587502386,left,0.3731567499926314,None,demo,001,2025-02-03_14h57.04.486,contrast_sensitivity,2024.2.4,None,2025-02-03 14h57.12.349030 -0500,
0.1,-1,4,235,25,3,left,0.291745665948838,None,3,25,235,40,224.78476099995896,,,,224.7808059999952,225.37825033301488,225.68051224993542,left,0.291745665948838,None,demo,001,2025-02-03_14h57.04.486,contrast_sensitivity,2024.2.4,None,2025-02-03 14h57.12.349030 -0500,
1e-08,1,8,236,26,3,left,0.7956959999864921,None,3,26,236,42,225.68912875000387,,,,225.6828034169739,226.27843316702638,227.0803057079902,left,0.7956959999864921,None,demo,001,2025-02-03_14h57.04.486,contrast_sensitivity,2024.2.4,None,2025-02-03 14h57.12.349030 -0500,
0.001,-1,16,237,27,3,left,0.38716445805039257,None,3,27,237,66,227.08726149995346,,,,227.08245254203212,227.6787885830272,228.0680919579463,left,0.38716445805039257,None,demo,001,2025-02-03_14h57.04.486,contrast_sensitivity,2024.2.4,None,2025-02-03 14h57.12.349030 -0500,
0.1,-1,1,238,28,3,left,0.4390948750078678,None,3,28,238,12,228.0781649579294,,,,228.07026308297645,228.68190550000872,229.13038933300413,left,0.4390948750078678,None,demo,001,2025-02-03_14h57.04.486,contrast_sensitivity,2024.2.4,None,2025-02-03 14h57.12.349030 -0500,
1e-08,-1,16,239,29,3,left,0.28847329202108085,None,3,29,239,63,229.13691883301362,,,,229.13222929195035,229.72840616700705,230.0307704169536,left,0.28847329202108085,None,demo,001,2025-02-03_14h57.04.486,contrast_sensitivity,2024.2.4,None,2025-02-03 14h57.12.349030 -0500,
0.0001,-1,8,240,30,3,left,0.25225458294153214,None,3,30,240,51,230.04513462493196,,,,230.03321033297107,230.62859854195267,230.88438916695304,left,0.25225458294153214,None,demo,001,2025-02-03_14h57.04.486,contrast_sensitivity,2024.2.4,None,2025-02-03 14h57.12.349030 -0500,
0.01,1,4,241,31,3,left,1.2438448739703745,None,3,31,241,32,230.89479566703085,,,,230.88638199993875,231.47896108299028,232.72876466694288,left,1.2438448739703745,None,demo,001,2025-02-03_14h57.04.486,contrast_sensitivity,2024.2.4,None,2025-02-03 14h57.12.349030 -0500,
1e-06,-1,16,242,32,3,left,0.43637779098935425,None,3,32,242,64,232.73473133298103,,,,232.73013441695366,233.32744041702244,233.76764041697606,left,0.43637779098935425,None,demo,001,2025-02-03_14h57.04.486,contrast_sensitivity,2024.2.4,None,2025-02-03 14h57.12.349030 -0500,
1.0,1,1,243,33,3,right,0.3035094579681754,None,3,33,243,6,233.77823058294598,,,,233.76967145793606,234.36629299994092,234.68072854203638,right,0.3035094579681754,None,demo,001,2025-02-03_14h57.04.486,contrast_sensitivity,2024.2.4,None,2025-02-03 14h57.12.349030 -0500,
1.0,1,4,244,34,3,right,0.16707312397193164,None,3,34,244,34,234.68919770792127,,,,234.68310349993408,235.27867158292793,235.44839058292564,right,0.16707312397193164,None,demo,001,2025-02-03_14h57.04.486,contrast_sensitivity,2024.2.4,None,2025-02-03 14h57.12.349030 -0500,
0.01,-1,8,245,35,3,left,0.39669845800381154,None,3,35,245,53,235.4560137919616,,,,235.45088795793708,236.0451157919597,236.44781879195943,left,0.39669845800381154,None,demo,001,2025-02-03_14h57.04.486,contrast_sensitivity,2024.2.4,None,2025-02-03 14h57.12.349030 -0500,
0.001,1,2,246,36,3,left,0.34884279093239456,None,3,36,246,17,236.45676754193846,,,,236.45025224995334,237.04497283301316,237.39806837495416,left,0.34884279093239456,None,demo,001,2025-02-03_14h57.04.486,contrast_sensitivity,2024.2.4,None,2025-02-03 14h57.12.349030 -0500,
0.01,1,8,247,37,3,left,0.2392807910218835,None,3,37,247,46,237.41183891694527,,,,237.40013570792507,238.01543258293532,238.26447112497408,left,0.2392807910218835,None,demo,001,2025-02-03_14h57.04.486,contrast_sensitivity,2024.2.4,None,2025-02-03 14h57.12.349030 -0500,
0.1,1,8,248,38,3,right,0.3127358329948038,None,3,38,248,47,238.2783814999275,,,,238.26680174993817,238.86233258293942,239.18044262495823,right,0.3127358329948038,None,demo,001,2025-02-03_14h57.04.486,contrast_sensitivity,2024.2.4,None,2025-02-03 14h57.12.349030 -0500,
0.001,1,1,249,39,3,right,0.34137166605796665,None,3,39,249,3,239.18933254200965,,,,239.18286987498868,239.77836933301296,240.1311701249797,right,0.34137166605796665,None,demo,001,2025-02-03_14h57.04.486,contrast_sensitivity,2024.2.4,None,2025-02-03 14h57.12.349030 -0500,
1.0,-1,8,250,40,3,left,0.3701397499535233,None,3,40,250,55,240.13998812495265,,,,240.1335397500079,240.7274839170277,241.10065229202155,left,0.3701397499535233,None,demo,001,2025-02-03_14h57.04.486,contrast_sensitivity,2024.2.4,None,2025-02-03 14h57.12.349030 -0500,
0.001,1,4,251,41,3,left,0.3809706249739975,None,3,41,251,31,241.11058029194828,,,,241.10199595801532,241.69479408301413,242.08029758301564,left,0.3809706249739975,None,demo,001,2025-02-03_14h57.04.486,contrast_sensitivity,2024.2.4,None,2025-02-03 14h57.12.349030 -0500,
1.0,-1,16,252,42,3,left,0.3205267080338672,None,3,42,252,69,242.08926591696218,,,,242.0825007079402,242.67804616701324,243.00044945802074,left,0.3205267080338672,None,demo,001,2025-02-03_14h57.04.486,contrast_sensitivity,2024.2.4,None,2025-02-03 14h57.12.349030 -0500,
0.0001,-1,16,253,43,3,left,0.3600166250253096,None,3,43,253,65,243.01129966694862,,,,243.00258295796812,243.5995760000078,243.9639999580104,left,0.3600166250253096,None,demo,001,2025-02-03_14h57.04.486,contrast_sensitivity,2024.2.4,None,2025-02-03 14h57.12.349030 -0500,
1e-06,1,2,254,44,3,left,0.32885745796374977,None,3,44,254,15,243.97840712498873,,,,243.96536058292259,244.58076345792506,244.91439679195173,left,0.32885745796374977,None,demo,001,2025-02-03_14h57.04.486,contrast_sensitivity,2024.2.4,None,2025-02-03 14h57.12.349030 -0500,
0.1,1,1,255,45,3,right,0.3329049579333514,None,3,45,255,5,244.92166795802768,,,,244.91665924992412,245.51190637494437,245.84739370795432,right,0.3329049579333514,None,demo,001,2025-02-03_14h57.04.486,contrast_sensitivity,2024.2.4,None,2025-02-03 14h57.12.349030 -0500,
0.0001,1,8,256,46,3,right,0.14812566607724875,None,3,46,256,44,245.85646912502125,,,,245.84953233296983,246.44537070801016,246.59740387497004,right,0.14812566607724875,None,demo,001,2025-02-03_14h57.04.486,contrast_sensitivity,2024.2.4,None,2025-02-03 14h57.12.349030 -0500,
0.0001,-1,1,257,47,3,left,0.3343733330257237,None,3,47,257,9,246.6053028749302,,,,246.59961699997075,247.19508262502495,247.5344244579319,left,0.3343733330257237,None,demo,001,2025-02-03_14h57.04.486,contrast_sensitivity,2024.2.4,None,2025-02-03 14h57.12.349030 -0500,
1e-08,1,16,258,48,3,left,0.47576229099649936,None,3,48,258,56,247.5448248749599,,,,247.53678395797033,248.1327474579448,248.61455779196694,left,0.47576229099649936,None,demo,001,2025-02-03_14h57.04.486,contrast_sensitivity,2024.2.4,None,2025-02-03 14h57.12.349030 -0500,
1.0,1,16,259,49,3,right,0.16370500007178634,None,3,49,259,62,248.62335120793432,,,,248.61657304200344,249.21074437501375,249.379465166945,right,0.16370500007178634,None,demo,001,2025-02-03_14h57.04.486,contrast_sensitivity,2024.2.4,None,2025-02-03 14h57.12.349030 -0500,
0.01,-1,2,260,50,3,left,0.42005420790519565,None,3,50,260,25,249.38584912498482,,,,249.38124158303253,249.9803299169289,250.41389099997468,left,0.42005420790519565,None,demo,001,2025-02-03_14h57.04.486,contrast_sensitivity,2024.2.4,None,2025-02-03 14h57.12.349030 -0500,
0.01,1,1,261,51,3,left,0.2815257490146905,None,3,51,261,4,250.4227734579472,,,,250.41629691701382,251.01189087494276,251.29766091692727,left,0.2815257490146905,None,demo,001,2025-02-03_14h57.04.486,contrast_sensitivity,2024.2.4,None,2025-02-03 14h57.12.349030 -0500,
0.01,-1,16,262,52,3,left,0.33535087399650365,None,3,52,262,67,251.3047329999972,,,,251.29993270803243,251.89503495802637,252.23451129195746,left,0.33535087399650365,None,demo,001,2025-02-03_14h57.04.486,contrast_sensitivity,2024.2.4,None,2025-02-03 14h57.12.349030 -0500,
0.0001,-1,4,263,53,3,left,0.20171979104634374,None,3,53,263,37,252.2445783750154,,,,252.2365414169617,252.83276200003456,253.04740362497978,left,0.20171979104634374,None,demo,001,2025-02-03_14h57.04.486,contrast_sensitivity,2024.2.4,None,2025-02-03 14h57.12.349030 -0500,
1.0,1,2,264,54,3,right,0.1605030830251053,None,3,54,264,20,253.06213933299296,,,,253.04956083302386,253.64496258297004,253.81435312493704,right,0.1605030830251053,None,demo,001,2025-02-03_14h57.04.486,contrast_sensitivity,2024.2.4,None,2025-02-03 14h57.12.349030 -0500,
0.001,-1,8,265,55,3,left,0.19854995794594288,None,3,55,265,52,253.8220818749396,,,,253.816645917017,254.41178004199173,254.6138011669973,left,0.19854995794594288,None,demo,001,2025-02-03_14h57.04.486,contrast_sensitivity,2024.2.4,None,2025-02-03 14h57.12.349030 -0500,
1e-06,1,4,266,56,3,right,0.3016085420968011,None,3,56,266,29,254.62841329199728,,,,254.6150107079884,255.21473020792473,255.53004241699819,right,0.3016085420968011,None,demo,001,2025-02-03_14h57.04.486,contrast_sensitivity,2024.2.4,None,2025-02-03 14h57.12.349030 -0500,
0.001,-1,4,267,57,3,left,0.22397375002037734,None,3,57,267,38,255.5386743330164,,,,255.53200224996544,256.1282798330067,256.3625208749436,left,0.22397375002037734,None,demo,001,2025-02-03_14h57.04.486,contrast_sensitivity,2024.2.4,None,2025-02-03 14h57.12.349030 -0500,
1e-08,-1,4,268,58,3,right,0.6481257079867646,None,3,58,268,35,256.3682597919833,,,,256.3641152919736,256.96109654195607,257.6124955419218,right,0.6481257079867646,None,demo,001,2025-02-03_14h57.04.486,contrast_sensitivity,2024.2.4,None,2025-02-03 14h57.12.349030 -0500,
0.1,-1,16,269,59,3,left,0.35917499905917794,None,3,59,269,68,257.6186145419488,,,,257.61394325003494,258.2010543750366,258.56843274994753,left,0.35917499905917794,None,demo,001,2025-02-03_14h57.04.486,contrast_sensitivity,2024.2.4,None,2025-02-03 14h57.12.349030 -0500,
1e-08,1,1,270,60,3,left,0.3362096669152379,None,3,60,270,0,258.58230991696473,,,,258.57059512496926,259.1789823329309,259.53060537495185,left,0.3362096669152379,None,demo,001,2025-02-03_14h57.04.486,contrast_sensitivity,2024.2.4,None,2025-02-03 14h57.12.349030 -0500,
1e-06,1,1,271,61,3,left,0.5289077080087736,None,3,61,271,1,259.5481158749899,,,,259.5327237920137,260.12841787503567,260.6642816249514,left,0.5289077080087736,None,demo,001,2025-02-03_14h57.04.486,contrast_sensitivity,2024.2.4,None,2025-02-03 14h57.12.349030 -0500,
0.001,-1,2,272,62,3,left,0.37439741706475616,None,3,62,272,24,260.67307879193686,,,,260.6668574579526,261.261864042026,261.64755570795387,left,0.37439741706475616,None,demo,001,2025-02-03_14h57.04.486,contrast_sensitivity,2024.2.4,None,2025-02-03 14h57.12.349030 -0500,
0.01,1,2,273,63,3,left,0.30919649999123067,None,3,63,273,18,261.66195058298763,,,,261.6503543329891,262.2449672919465,262.56411829194985,left,0.30919649999123067,None,demo,001,2025-02-03_14h57.04.486,contrast_sensitivity,2024.2.4,None,2025-02-03 14h57.12.349030 -0500,
0.1,1,2,274,64,3,right,0.218273708014749,None,3,64,274,19,262.57847920793574,,,,262.5666514169425,263.16180937492754,263.3839436250273,right,0.218273708014749,None,demo,001,2025-02-03_14h57.04.486,contrast_sensitivity,2024.2.4,None,2025-02-03 14h57.12.349030 -0500,
0.001,-1,1,275,65,3,left,0.24865220801439136,None,3,65,275,10,263.3945372919552,,,,263.3859742919449,263.9784704579506,264.23097195802256,left,0.24865220801439136,None,demo,001,2025-02-03_14h57.04.486,contrast_sensitivity,2024.2.4,None,2025-02-03 14h57.12.349030 -0500,
1e-06,1,16,276,66,3,right,0.3396083740517497,None,3,66,276,57,264.2388877919875,,,,264.2333417920163,264.8284244579263,265.1789350420004,right,0.3396083740517497,None,demo,001,2025-02-03_14h57.04.486,contrast_sensitivity,2024.2.4,None,2025-02-03 14h57.12.349030 -0500,
1e-06,-1,2,277,67,3,left,0.27259374991990626,None,3,67,277,22,265.18474624992814,,,,265.1805020419415,265.7774789170362,266.06401670794,left,0.27259374991990626,None,demo,001,2025-02-03_14h57.04.486,contrast_sensitivity,2024.2.4,None,2025-02-03 14h57.12.349030 -0500,
1e-06,1,8,278,68,3,left,0.39125891600269824,None,3,68,278,43,266.0724888750119,,,,266.0658456250094,266.6617649169639,267.0641612079926,left,0.39125891600269824,None,demo,001,2025-02-03_14h57.04.486,contrast_sensitivity,2024.2.4,None,2025-02-03 14h57.12.349030 -0500,
1e-08,1,2,279,69,3,left,0.2696426659822464,None,3,69,279,14,267.07299124996644,,,,267.06628449994605,267.66131137497723,267.9342747919727,left,0.2696426659822464,None,demo,001,2025-02-03_14h57.04.486,contrast_sensitivity,2024.2.4,None,2025-02-03 14h57.12.349030 -0500,
1.0,1,8,280,0,4,right,0.21214470802806318,None,4,0,280,48,267.94476504193153,,,,267.9368675419828,268.53284775000066,268.7474937499501,right,0.21214470802806318,None,demo,001,2025-02-03_14h57.04.486,contrast_sensitivity,2024.2.4,None,2025-02-03 14h57.12.349030 -0500,
0.01,-1,2,281,1,4,left,0.2908615410560742,None,4,1,281,25,268.7566784999799,,,,268.75003670796286,269.3450944579672,269.6477672919864,left,0.2908615410560742,None,demo,001,2025-02-03_14h57.04.486,contrast_sensitivity,2024.2.4,None,2025-02-03 14h57.12.349030 -0500,
1.0,-1,1,282,2,4,left,1.12548891606275,None,4,2,282,13,269.656535374932,,,,269.65022504201625,270.2448497079313,271.3800139579689,left,1.12548891606275,None,demo,001,2025-02-03_14h57.04.486,contrast_sensitivity,2024.2.4,None,2025-02-03 14h57.12.349030 -0500,
0.001,1,2,283,3,4,right,0.4466029580216855,None,4,3,283,17,271.38640108297113,,,,271.38167308294214,271.97839212499093,272.4302578329807,right,0.4466029580216855,None,demo,001,2025-02-03_14h57.04.486,contrast_sensitivity,2024.2.4,None,2025-02-03 14h57.12.349030 -0500,
0.01,1,8,284,4,4,right,0.39501691597979516,None,4,4,284,46,272.43785079196095,,,,272.4324077499332,273.0288526249351,273.43003129202407,right,0.39501691597979516,None,demo,001,2025-02-03_14h57.04.486,contrast_sensitivity,2024.2.4,None,2025-02-03 14h57.12.349030 -0500,
1e-08,1,4,285,5,4,left,0.39653687400277704,None,4,5,285,28,273.43641866697,,,,273.43168525001965,274.0274272080278,274.4309642079752,left,0.39653687400277704,None,demo,001,2025-02-03_14h57.04.486,contrast_sensitivity,2024.2.4,None,2025-02-03 14h57.12.349030 -0500,
0.01,-1,16,286,6,4,left,0.350069748936221,None,4,6,286,67,274.44001387502067,,,,274.4330403750064,275.0283689169446,275.38063241692726,left,0.350069748936221,None,demo,001,2025-02-03_14h57.04.486,contrast_sensitivity,2024.2.4,None,2025-02-03 14h57.12.349030 -0500,
0.1,-1,16,287,7,4,left,0.34615520806983113,None,4,7,287,68,275.3951090419432,,,,275.3829152500257,275.9787652499508,276.3304544169223,left,0.34615520806983113,None,demo,001,2025-02-03_14h57.04.486,contrast_sensitivity,2024.2.4,None,2025-02-03 14h57.12.349030 -0500,
0.1,-1,2,288,8,4,left,0.30984925001394004,None,4,8,288,26,276.3381614580285,,,,276.33281108294614,276.92868104192894,277.2473874579882,left,0.30984925001394004,None,demo,001,2025-02-03_14h57.04.486,contrast_sensitivity,2024.2.4,None,2025-02-03 14h57.12.349030 -0500,
0.0001,-1,2,289,9,4,left,0.24153179104905576,None,4,9,289,23,277.25626774993725,,,,277.2494737500092,277.8452199170133,278.0883163330145,left,0.24153179104905576,None,demo,001,2025-02-03_14h57.04.486,contrast_sensitivity,2024.2.4,None,2025-02-03 14h57.12.349030 -0500,
1e-08,1,16,290,10,4,right,0.19047287397552282,None,4,10,290,56,278.09475375001784,,,,278.0897068330087,278.6983053749427,278.89711641694885,right,0.19047287397552282,None,demo,001,2025-02-03_14h57.04.486,contrast_sensitivity,2024.2.4,None,2025-02-03 14h57.12.349030 -0500,
0.01,1,2,291,11,4,right,0.3527311250800267,None,4,11,291,18,278.9050529579399,,,,278.89934208302293,279.4950345000252,279.8512122919783,right,0.3527311250800267,None,demo,001,2025-02-03_14h57.04.486,contrast_sensitivity,2024.2.4,None,2025-02-03 14h57.12.349030 -0500,
1e-08,1,2,292,12,4,left,0.4134967909194529,None,4,12,292,14,279.8613651669584,,,,279.8534162499709,280.44923316698987,280.87033045792487,left,0.4134967909194529,None,demo,001,2025-02-03_14h57.04.486,contrast_sensitivity,2024.2.4,None,2025-02-03 14h57.12.349030 -0500,
0.1,1,1,293,13,4,right,0.29973304201848805,None,4,13,293,5,280.8774936669506,,,,280.87237150000874,281.4639385829214,281.76640558301006,right,0.29973304201848805,None,demo,001,2025-02-03_14h57.04.486,contrast_sensitivity,2024.2.4,None,2025-02-03 14h57.12.349030 -0500,
0.001,1,16,294,14,4,left,0.28389587404672056,None,4,14,294,59,281.7773377499543,,,,281.76816929201595,282.36174087494146,282.6542659170227,left,0.28389587404672056,None,demo,001,2025-02-03_14h57.04.486,contrast_sensitivity,2024.2.4,None,2025-02-03 14h57.12.349030 -0500,
0.0001,1,4,295,15,4,left,0.23879587510600686,None,4,15,295,30,282.66194799996447,,,,282.6553929169895,283.25085774995387,283.497363167,left,0.23879587510600686,None,demo,001,2025-02-03_14h57.04.486,contrast_sensitivity,2024.2.4,None,2025-02-03 14h57.12.349030 -0500,
1e-08,-1,8,296,16,4,left,0.3709435409400612,None,4,16,296,49,283.50631633296143,,,,283.49944341694936,284.09570233302657,284.4808160000248,left,0.3709435409400612,None,demo,001,2025-02-03_14h57.04.486,contrast_sensitivity,2024.2.4,None,2025-02-03 14h57.12.349030 -0500,
1e-06,1,2,297,17,4,left,0.7060830409172922,None,4,17,297,15,284.49824024992995,,,,284.4830340000335,285.0785122079542,285.79806179192383,left,0.7060830409172922,None,demo,001,2025-02-03_14h57.04.486,contrast_sensitivity,2024.2.4,None,2025-02-03 14h57.12.349030 -0500,
1e-08,-1,16,298,18,4,right,0.34859795798547566,None,4,18,298,63,285.80627733294386,,,,285.80052479193546,286.3949740829412,286.74773533293046,right,0.34859795798547566,None,demo,001,2025-02-03_14h57.04.486,contrast_sensitivity,2024.2.4,None,2025-02-03 14h57.12.349030 -0500,
0.001,-1,4,299,19,4,left,0.41633737401571125,None,4,19,299,38,286.7567776249489,,,,286.7501583750127,287.3452269999543,287.76499562500976,left,0.41633737401571125,None,demo,001,2025-02-03_14h57.04.486,contrast_sensitivity,2024.2.4,None,2025-02-03 14h57.12.349030 -0500,
0.01,1,16,300,20,4,left,0.41298633301630616,None,4,20,300,60,287.77848729200196,,,,287.7671481670113,288.3617037499789,288.7793318750337,left,0.41298633301630616,None,demo,001,2025-02-03_14h57.04.486,contrast_sensitivity,2024.2.4,None,2025-02-03 14h57.12.349030 -0500,
0.01,-1,8,301,21,4,left,0.48399379092734307,None,4,21,301,53,288.78508770803455,,,,288.78069604199845,289.3774724579416,289.8652585829841,left,0.48399379092734307,None,demo,001,2025-02-03_14h57.04.486,contrast_sensitivity,2024.2.4,None,2025-02-03 14h57.12.349030 -0500,
1e-06,-1,4,302,22,4,left,0.39686020801309496,None,4,22,302,36,289.8772128749406,,,,289.8668512919685,290.4616470419569,290.863770750002,left,0.39686020801309496,None,demo,001,2025-02-03_14h57.04.486,contrast_sensitivity,2024.2.4,None,2025-02-03 14h57.12.349030 -0500,
1e-06,1,4,303,23,4,right,0.42022758291568607,None,4,23,303,29,290.87291308294516,,,,290.8661342919804,291.4621691670036,291.88462404196616,right,0.42022758291568607,None,demo,001,2025-02-03_14h57.04.486,contrast_sensitivity,2024.2.4,None,2025-02-03 14h57.12.349030 -0500,
0.0001,-1,4,304,24,4,left,0.3322318330174312,None,4,24,304,37,291.89476212498266,,,,291.8872672499856,292.4831863329746,292.8308851249749,left,0.3322318330174312,None,demo,001,2025-02-03_14h57.04.486,contrast_sensitivity,2024.2.4,None,2025-02-03 14h57.12.349030 -0500,
1e-08,-1,4,305,25,4,left,0.4100375829730183,None,4,25,305,35,292.8450378749985,,,,292.8334129579598,293.4283681670204,293.848225499969,left,0.4100375829730183,None,demo,001,2025-02-03_14h57.04.486,contrast_sensitivity,2024.2.4,None,2025-02-03 14h57.12.349030 -0500,
0.01,-1,1,306,26,4,left,0.36650837503839284,None,4,26,306,11,293.8617402079981,,,,293.8504582500318,294.4449824169278,294.8148610419594,left,0.36650837503839284,None,demo,001,2025-02-03_14h57.04.486,contrast_sensitivity,2024.2.4,None,2025-02-03 14h57.12.349030 -0500,
1.0,1,4,307,27,4,right,0.26647795794997364,None,4,27,307,34,294.8285617920337,,,,294.81737179192714,295.4118507920066,295.68143641692586,right,0.26647795794997364,None,demo,001,2025-02-03_14h57.04.486,contrast_sensitivity,2024.2.4,None,2025-02-03 14h57.12.349030 -0500,
1.0,1,2,308,28,4,right,0.3291297910036519,None,4,28,308,20,295.68878583295736,,,,295.68372450000606,296.2783453329466,296.61372299992945,right,0.3291297910036519,None,demo,001,2025-02-03_14h57.04.486,contrast_sensitivity,2024.2.4,None,2025-02-03 14h57.12.349030 -0500,
1.0,-1,8,309,29,4,left,0.06349866604432464,None,4,29,309,55,296.62254324997775,,,,296.61587966699153,297.2118240420241,297.2807487079408,left,0.06349866604432464,None,demo,001,2025-02-03_14h57.04.486,contrast_sensitivity,2024.2.4,None,2025-02-03 14h57.12.349030 -0500,
0.01,1,4,310,30,4,left,0.30981891707051545,None,4,30,310,32,297.2887660829583,,,,297.2830107919872,297.8774602919584,298.1965579580283,left,0.30981891707051545,None,demo,001,2025-02-03_14h57.04.486,contrast_sensitivity,2024.2.4,None,2025-02-03 14h57.12.349030 -0500,
1e-06,-1,2,311,31,4,left,0.3001063750125468,None,4,31,311,22,298.20212504197843,,,,298.1980877079768,298.7951409999514,299.1011544170324,left,0.3001063750125468,None,demo,001,2025-02-03_14h57.04.486,contrast_sensitivity,2024.2.4,None,2025-02-03 14h57.12.349030 -0500,
0.001,1,4,312,32,4,left,0.3089468330144882,None,4,32,312,31,299.1114352919394,,,,299.1035529579967,299.69945654203184,300.01453512499575,left,0.3089468330144882,None,demo,001,2025-02-03_14h57.04.486,contrast_sensitivity,2024.2.4,None,2025-02-03 14h57.12.349030 -0500,
1e-08,1,1,313,33,4,right,0.46851291600614786,None,4,33,313,0,300.0228299580049,,,,300.01685345801525,300.6117180000292,301.0838049999438,right,0.46851291600614786,None,demo,001,2025-02-03_14h57.04.486,contrast_sensitivity,2024.2.4,None,2025-02-03 14h57.12.349030 -0500,
1.0,-1,2,314,34,4,left,0.3478019169997424,None,4,34,314,27,301.0948017919436,,,,301.08599612500984,301.6783192079747,302.03100099996664,left,0.3478019169997424,None,demo,001,2025-02-03_14h57.04.486,contrast_sensitivity,2024.2.4,None,2025-02-03 14h57.12.349030 -0500,
0.0001,1,8,315,35,4,left,0.6437279160600156,None,4,35,315,44,302.03742437495384,,,,302.033015999943,302.62854212499224,303.28068620793056,left,0.6437279160600156,None,demo,001,2025-02-03_14h57.04.486,contrast_sensitivity,2024.2.4,None,2025-02-03 14h57.12.349030 -0500,
0.0001,1,1,316,36,4,right,0.47212608298286796,None,4,36,316,2,303.2903198749991,,,,303.28282041696366,303.87806499993894,304.36417666694615,right,0.47212608298286796,None,demo,001,2025-02-03_14h57.04.486,contrast_sensitivity,2024.2.4,None,2025-02-03 14h57.12.349030 -0500,
1e-06,-1,8,317,37,4,left,0.3504468329483643,None,4,37,317,50,304.3729927079985,,,,304.3662417079322,304.9616545829922,305.3180362499552,left,0.3504468329483643,None,demo,001,2025-02-03_14h57.04.486,contrast_sensitivity,2024.2.4,None,2025-02-03 14h57.12.349030 -0500,
1e-08,-1,1,318,38,4,left,0.3689475830178708,None,4,38,318,7,305.32807195803616,,,,305.32025791693013,305.91515920800157,306.2960735829547,left,0.3689475830178708,None,demo,001,2025-02-03_14h57.04.486,contrast_sensitivity,2024.2.4,None,2025-02-03 14h57.12.349030 -0500,
1e-06,1,16,319,39,4,left,0.5391550830099732,None,4,39,319,57,306.30197604198474,,,,306.29765116702765,306.8831460829824,307.4308940829942,left,0.5391550830099732,None,demo,001,2025-02-03_14h57.04.486,contrast_sensitivity,2024.2.4,None,2025-02-03 14h57.12.349030 -0500,
0.001,-1,2,320,40,4,left,0.6607229580404237,None,4,40,320,24,307.44804179202765,,,,307.433135750005,308.02850587503053,308.6983111249283,left,0.6607229580404237,None,demo,001,2025-02-03_14h57.04.486,contrast_sensitivity,2024.2.4,None,2025-02-03 14h57.12.349030 -0500,
1.0,1,1,321,41,4,right,0.35298866603989154,None,4,41,321,6,308.715148499934,,,,308.70048858295195,309.29501345800236,309.65081979194656,right,0.35298866603989154,None,demo,001,2025-02-03_14h57.04.486,contrast_sensitivity,2024.2.4,None,2025-02-03 14h57.12.349030 -0500,
1e-06,-1,16,322,42,4,left,0.36880795808974653,None,4,42,322,64,309.6608080830192,,,,309.65284787502605,310.2492377499584,310.62909724994097,left,0.36880795808974653,None,demo,001,2025-02-03_14h57.04.486,contrast_sensitivity,2024.2.4,None,2025-02-03 14h57.12.349030 -0500,
1e-06,1,1,323,43,4,right,0.34084812400396913,None,4,43,323,1,310.6351566669764,,,,310.6305041669402,311.2291932919761,311.5805095420219,right,0.34084812400396913,None,demo,001,2025-02-03_14h57.04.486,contrast_sensitivity,2024.2.4,None,2025-02-03 14h57.12.349030 -0500,
0.001,-1,8,324,44,4,left,0.4015706659993157,None,4,44,324,52,311.5884144579759,,,,311.58277137496043,312.1784016250167,312.5853544579586,left,0.4015706659993157,None,demo,001,2025-02-03_14h57.04.486,contrast_sensitivity,2024.2.4,None,2025-02-03 14h57.12.349030 -0500,
0.0001,-1,8,325,45,4,left,0.3640329160261899,None,4,45,325,51,312.5937771250028,,,,312.5872589999344,313.1829042920144,313.5510707499925,left,0.3640329160261899,None,demo,001,2025-02-03_14h57.04.486,contrast_sensitivity,2024.2.4,None,2025-02-03 14h57.12.349030 -0500,
0.0001,1,16,326,46,4,left,0.32930370792746544,None,4,46,326,58,313.56143549992703,,,,313.5534513749881,314.1485959580168,314.48453937494196,left,0.32930370792746544,None,demo,001,2025-02-03_14h57.04.486,contrast_sensitivity,2024.2.4,None,2025-02-03 14h57.12.349030 -0500,
0.1,-1,8,327,47,4,left,0.2959357490763068,None,4,47,327,54,314.4939105419908,,,,314.48607891693246,315.0829867919674,315.38766391703393,left,0.2959357490763068,None,demo,001,2025-02-03_14h57.04.486,contrast_sensitivity,2024.2.4,None,2025-02-03 14h57.12.349030 -0500,
1e-06,-1,1,328,48,4,left,0.27665812498889863,None,4,48,328,8,315.39466470794287,,,,315.38926674996037,315.98241483292077,316.2675055420259,left,0.27665812498889863,None,demo,001,2025-02-03_14h57.04.486,contrast_sensitivity,2024.2.4,None,2025-02-03 14h57.12.349030 -0500,
0.01,1,1,329,49,4,right,0.2841970829758793,None,4,49,329,4,316.2784192499239,,,,316.26983679202385,316.8616730000358,317.1511836670106,right,0.2841970829758793,None,demo,001,2025-02-03_14h57.04.486,contrast_sensitivity,2024.2.4,None,2025-02-03 14h57.12.349030 -0500,
0.0001,-1,1,330,50,4,left,0.34846929099876434,None,4,50,330,9,317.161414082977,,,,317.1535754170036,317.7503311249893,318.10078650002833,left,0.34846929099876434,None,demo,001,2025-02-03_14h57.04.486,contrast_sensitivity,2024.2.4,None,2025-02-03 14h57.12.349030 -0500,
0.1,1,16,331,51,4,right,0.4149088750127703,None,4,51,331,61,318.1114214999834,,,,318.1026638329495,318.6998700000113,319.11800329200923,right,0.4149088750127703,None,demo,001,2025-02-03_14h57.04.486,contrast_sensitivity,2024.2.4,None,2025-02-03 14h57.12.349030 -0500,
0.1,1,4,332,52,4,right,0.28769245801959187,None,4,52,332,33,319.12716579192784,,,,319.1203209999949,319.7162221670151,320.0143253329443,right,0.28769245801959187,None,demo,001,2025-02-03_14h57.04.486,contrast_sensitivity,2024.2.4,None,2025-02-03 14h57.12.349030 -0500,
1e-08,-1,2,333,53,4,left,0.3790417080745101,None,4,53,333,21,320.02347899996676,,,,320.016661832924,320.61178970802575,320.9970280829584,left,0.3790417080745101,None,demo,001,2025-02-03_14h57.04.486,contrast_sensitivity,2024.2.4,None,2025-02-03 14h57.12.349030 -0500,
0.1,1,2,334,54,4,right,0.20943899999838322,None,4,54,334,19,321.0058349169558,,,,320.99926399998367,321.59528891695663,321.8143343749689,right,0.20943899999838322,None,demo,001,2025-02-03_14h57.04.486,contrast_sensitivity,2024.2.4,None,2025-02-03 14h57.12.349030 -0500,
0.001,1,1,335,55,4,right,0.3449659990146756,None,4,55,335,3,321.828367042006,,,,321.8165479579475,322.41075104195625,322.7626611669548,right,0.3449659990146756,None,demo,001,2025-02-03_14h57.04.486,contrast_sensitivity,2024.2.4,None,2025-02-03 14h57.12.349030 -0500,
0.1,-1,1,336,56,4,left,0.23927608306985348,None,4,56,336,12,322.76831175002735,,,,322.764278208022,323.350449791993,323.597178875003,left,0.23927608306985348,None,demo,001,2025-02-03_14h57.04.486,contrast_sensitivity,2024.2.4,None,2025-02-03 14h57.12.349030 -0500,
0.001,-1,1,337,57,4,left,0.30775141692720354,None,4,57,337,10,323.6069384579314,,,,323.5993784170132,324.1950694579864,324.5150600420311,left,0.30775141692720354,None,demo,001,2025-02-03_14h57.04.486,contrast_sensitivity,2024.2.4,None,2025-02-03 14h57.12.349030 -0500,
0.0001,1,2,338,58,4,right,0.3059222080046311,None,4,58,338,16,324.5226331249578,,,,324.51729020802304,325.1117436669301,325.43090749997646,right,0.3059222080046311,None,demo,001,2025-02-03_14h57.04.486,contrast_sensitivity,2024.2.4,None,2025-02-03 14h57.12.349030 -0500,
0.1,-1,4,339,59,4,left,0.2131572919897735,None,4,59,339,40,325.4397484579822,,,,325.4330637080129,326.02764662494883,326.24708812497556,left,0.2131572919897735,None,demo,001,2025-02-03_14h57.04.486,contrast_sensitivity,2024.2.4,None,2025-02-03 14h57.12.349030 -0500,
1.0,-1,16,340,60,4,left,5.318883832893334,None,4,60,340,69,326.2554170829244,,,,326.24958750000224,326.8623308329843,332.1850666250102,left,5.318883832893334,None,demo,001,2025-02-03_14h57.04.486,contrast_sensitivity,2024.2.4,None,2025-02-03 14h57.12.349030 -0500,
1.0,1,16,341,61,4,right,0.37845679104793817,None,4,61,341,62,332.1946417919826,,,,332.1873198329704,332.7832703329623,333.1677971249446,right,0.37845679104793817,None,demo,001,2025-02-03_14h57.04.486,contrast_sensitivity,2024.2.4,None,2025-02-03 14h57.12.349030 -0500,
0.1,1,8,342,62,4,right,0.18564804189372808,None,4,62,342,47,333.1778927500127,,,,333.1700037079863,333.7661157499533,333.9640955829527,right,0.18564804189372808,None,demo,001,2025-02-03_14h57.04.486,contrast_sensitivity,2024.2.4,None,2025-02-03 14h57.12.349030 -0500,
1e-06,1,8,343,63,4,right,0.2413274160353467,None,4,63,343,43,333.9725114579778,,,,333.9663427500054,334.56141308299266,334.8138751250226,right,0.2413274160353467,None,demo,001,2025-02-03_14h57.04.486,contrast_sensitivity,2024.2.4,None,2025-02-03 14h57.12.349030 -0500,
0.001,1,8,344,64,4,right,0.434691125061363,None,4,64,344,45,334.82341524993535,,,,334.81741362495814,335.4119998329552,335.85169754200615,right,0.434691125061363,None,demo,001,2025-02-03_14h57.04.486,contrast_sensitivity,2024.2.4,None,2025-02-03 14h57.12.349030 -0500,
1e-08,1,8,345,65,4,left,0.6960784170078114,None,4,65,345,42,335.86138708295766,,,,335.8542080000043,336.46167933300603,337.1636240829248,left,0.6960784170078114,None,demo,001,2025-02-03_14h57.04.486,contrast_sensitivity,2024.2.4,None,2025-02-03 14h57.12.349030 -0500,
0.0001,-1,16,346,66,4,right,0.958909624023363,None,4,66,346,65,337.1718011669582,,,,337.16567062493414,337.76172612502705,338.72935470798984,right,0.958909624023363,None,demo,001,2025-02-03_14h57.04.486,contrast_sensitivity,2024.2.4,None,2025-02-03 14h57.12.349030 -0500,
0.01,-1,4,347,67,4,left,0.38303224998526275,None,4,67,347,39,338.7348086669808,,,,338.7308436250314,339.32852224993985,339.7148512499407,left,0.38303224998526275,None,demo,001,2025-02-03_14h57.04.486,contrast_sensitivity,2024.2.4,None,2025-02-03 14h57.12.349030 -0500,
1.0,-1,4,348,68,4,left,0.27469116600696,None,4,68,348,41,339.72806341701653,,,,339.71613266703207,340.31301625003107,340.59727324999403,left,0.27469116600696,None,demo,001,2025-02-03_14h57.04.486,contrast_sensitivity,2024.2.4,None,2025-02-03 14h57.12.349030 -0500,
0.001,-1,16,349,69,4,left,0.13165195798501372,None,4,69,349,66,340.6063805830199,,,,340.5992736669723,341.194897291949,341.33177308295853,left,0.13165195798501372,None,demo,001,2025-02-03_14h57.04.486,contrast_sensitivity,2024.2.4,None,2025-02-03 14h57.12.349030 -0500,
1e-06,1,1,350,0,5,left,0.1105315419845283,None,5,0,350,1,341.34535212500487,,,,341.33409962500446,341.9281062920345,342.04729012493044,left,0.1105315419845283,None,demo,001,2025-02-03_14h57.04.486,contrast_sensitivity,2024.2.4,None,2025-02-03 14h57.12.349030 -0500,
1e-08,1,1,351,1,5,left,0.2524487079354003,None,5,1,351,0,342.06185462500434,,,,342.0494317919947,342.6450990829617,342.90146812493913,left,0.2524487079354003,None,demo,001,2025-02-03_14h57.04.486,contrast_sensitivity,2024.2.4,None,2025-02-03 14h57.12.349030 -0500,
0.1,1,2,352,2,5,right,0.2067328329430893,None,5,2,352,19,342.9115115000168,,,,342.90320295793936,343.4989837500034,343.713864041958,right,0.2067328329430893,None,demo,001,2025-02-03_14h57.04.486,contrast_sensitivity,2024.2.4,None,2025-02-03 14h57.12.349030 -0500,
0.001,1,1,353,3,5,right,0.17895112396217883,None,5,3,353,3,343.72259062493686,,,,343.716183124925,344.3117029579589,344.49742854200304,right,0.17895112396217883,None,demo,001,2025-02-03_14h57.04.486,contrast_sensitivity,2024.2.4,None,2025-02-03 14h57.12.349030 -0500,
1e-06,-1,16,354,4,5,right,0.09527170797809958,None,5,4,354,64,344.5056782499887,,,,344.49974045797717,345.0952254169388,345.19687679200433,right,0.09527170797809958,None,demo,001,2025-02-03_14h57.04.486,contrast_sensitivity,2024.2.4,None,2025-02-03 14h57.12.349030 -0500,
0.001,-1,4,355,5,5,left,0.2983114990638569,None,5,5,355,38,345.2060481669614,,,,345.1987899580272,345.79414141702,346.0962641669903,left,0.2983114990638569,None,demo,001,2025-02-03_14h57.04.486,contrast_sensitivity,2024.2.4,None,2025-02-03 14h57.12.349030 -0500,
1.0,1,16,356,6,5,right,0.20651316596195102,None,5,6,356,62,346.1029446669854,,,,346.0982690419769,346.69492304197047,346.9137280000141,right,0.20651316596195102,None,demo,001,2025-02-03_14h57.04.486,contrast_sensitivity,2024.2.4,None,2025-02-03 14h57.12.349030 -0500,
1e-08,1,8,357,7,5,left,0.3143198329489678,None,5,7,357,42,346.9225110829575,,,,346.9160211669514,347.51142308302224,347.8308960419381,left,0.3143198329489678,None,demo,001,2025-02-03_14h57.04.486,contrast_sensitivity,2024.2.4,None,2025-02-03 14h57.12.349030 -0500,
0.1,1,16,358,8,5,right,0.22221454104874283,None,5,8,358,61,347.8390783750219,,,,347.83314654196147,348.4286790420301,348.65427666692995,right,0.22221454104874283,None,demo,001,2025-02-03_14h57.04.486,contrast_sensitivity,2024.2.4,None,2025-02-03 14h57.12.349030 -0500,
0.01,-1,16,359,9,5,left,0.14345254097133875,None,5,9,359,67,348.66031062498223,,,,348.655400916934,349.2619499999564,349.41429020802025,left,0.14345254097133875,None,demo,001,2025-02-03_14h57.04.486,contrast_sensitivity,2024.2.4,None,2025-02-03 14h57.12.349030 -0500,
1e-08,1,2,360,10,5,left,0.13081633299589157,None,5,10,360,14,349.42223204195034,,,,349.4164320830023,350.01175495795906,350.1471163330134,left,0.13081633299589157,None,demo,001,2025-02-03_14h57.04.486,contrast_sensitivity,2024.2.4,None,2025-02-03 14h57.12.349030 -0500,
0.01,1,16,361,11,5,left,0.42191249900497496,None,5,11,361,60,350.15494491695426,,,,350.1494753329316,350.7454327919986,351.1809248329373,left,0.42191249900497496,None,demo,001,2025-02-03_14h57.04.486,contrast_sensitivity,2024.2.4,None,2025-02-03 14h57.12.349030 -0500,
0.01,-1,8,362,12,5,left,0.14724829094484448,None,5,12,362,53,351.1893756670179,,,,351.18334308301564,351.7981141669443,351.94755641696975,left,0.14724829094484448,None,demo,001,2025-02-03_14h57.04.486,contrast_sensitivity,2024.2.4,None,2025-02-03 14h57.12.349030 -0500,
1.0,-1,4,363,13,5,left,0.7466867909533903,None,5,13,363,41,351.9544824579498,,,,351.9497312499443,352.54863845801447,353.29953229194507,left,0.7466867909533903,None,demo,001,2025-02-03_14h57.04.486,contrast_sensitivity,2024.2.4,None,2025-02-03 14h57.12.349030 -0500,
0.001,1,16,364,14,5,right,0.06778049899730831,None,5,14,364,59,353.3108812919818,,,,353.30084591696505,353.8944811669644,353.9662912499625,right,0.06778049899730831,None,demo,001,2025-02-03_14h57.04.486,contrast_sensitivity,2024.2.4,None,2025-02-03 14h57.12.349030 -0500,
1e-08,-1,1,365,15,5,left,0.25071500008925796,None,5,15,365,7,353.9775097919628,,,,353.9676433749264,354.5614952079486,354.815380541957,left,0.25071500008925796,None,demo,001,2025-02-03_14h57.04.486,contrast_sensitivity,2024.2.4,None,2025-02-03 14h57.12.349030 -0500,
0.1,-1,8,366,16,5,left,0.10194604203570634,None,5,16,366,54,354.82801149995066,,,,354.81671808299143,355.41142845794093,355.5347547499696,left,0.10194604203570634,None,demo,001,2025-02-03_14h57.04.486,contrast_sensitivity,2024.2.4,None,2025-02-03 14h57.12.349030 -0500,
0.001,-1,2,367,17,5,left,0.03203274996485561,None,5,17,367,24,355.5450326669961,,,,355.5370515419636,356.1461649169214,356.1807283749804,left,0.03203274996485561,None,demo,001,2025-02-03_14h57.04.486,contrast_sensitivity,2024.2.4,None,2025-02-03 14h57.12.349030 -0500,
0.1,1,4,368,18,5,left,0.8127897080266848,None,5,18,368,33,356.1953652499942,,,,356.1826955419965,356.795451791957,357.61229662492406,left,0.8127897080266848,None,demo,001,2025-02-03_14h57.04.486,contrast_sensitivity,2024.2.4,None,2025-02-03 14h57.12.349030 -0500,
1.0,-1,1,369,19,5,left,0.019769291044212878,None,5,19,369,13,357.61787154199556,,,,357.61342645797413,358.2123769170139,358.23504916694947,left,0.019769291044212878,None,demo,001,2025-02-03_14h57.04.486,contrast_sensitivity,2024.2.4,None,2025-02-03 14h57.12.349030 -0500,
