contrast,location,n_cycles,thisN,thisTrialN,thisRepN,response.keys,response.rt,response.duration,trials.thisRepN,trials.thisTrialN,trials.thisN,trials.thisIndex,thisRow.t,notes,begin_experiment.started,begin_experiment.stopped,trial.started,response.started,trial.stopped,trials.response.keys,trials.response.rt,trials.response.duration,participant,session,date,expName,psychopyVersion,frameRate,expStart
,,,,,,,,,,,,,,,0.006806708,83.24937762506306,,,,,,,demo,001,2025-02-03_13h56.33.003,contrast_sensitivity,2024.2.4,None,2025-02-03 13h56.51.908240 -0500
1e-08,1,16,0,0,0,right,0.8970332490280271,None,0,0,0,48,83.26211158302613,,,,83.25610116601456,83.84204491600394,84.75317095802166,right,0.8970332490280271,None,demo,001,2025-02-03_13h56.33.003,contrast_sensitivity,2024.2.4,None,2025-02-03 13h56.51.908240 -0500
0.05,1,1,1,1,0,right,0.48412062495481223,None,0,1,1,3,84.76710320799612,,,,84.75522216607351,85.34994687500875,85.83633288,right,0.48412062495481223,None,demo,001,2025-02-03_13h56.33.003,contrast_sensitivity,2024.2.4,None,2025-02-03 13h56.51.908240 -0500
1e-08,-1,4,2,2,0,right,0.3377459580078721,None,0,2,2,30,85.85372350004036,,,,85.83829175005667,86.43725429102778,86.78448016603943,right,0.3377459580078721,None,demo,001,2025-02-03_13h56.33.003,contrast_sensitivity,2024.2.4,None,2025-02-03 13h56.51.908240 -0500
1,1,4,3,3,0,right,0.24781941703986377,None,0,3,3,29,86.79039046,,,,86.78582187497523,87.38317529100459,87.63550833298359,right,0.24781941703986377,None,demo,001,2025-02-03_13h56.33.003,contrast_sensitivity,2024.2.4,None,2025-02-03 13h56.51.908240 -0500
0.05,1,8,4,4,0,right,0.186248125,None,0,4,4,39,87.64140521,,,,87.63677204097621,88.22392733301967,88.41929845802952,right,0.186248125,None,demo,001,2025-02-03_13h56.33.003,contrast_sensitivity,2024.2.4,None,2025-02-03 13h56.51.908240 -0500
0.1,-1,8,5,5,0,left,0.31147524900734425,None,0,5,5,46,88.42836820799857,,,,88.42163179104682,89.01767241605558,89.33681254,left,0.31147524900734425,None,demo,001,2025-02-03_13h56.33.003,contrast_sensitivity,2024.2.4,None,2025-02-03 13h56.51.908240 -0500
1e-08,1,2,6,6,0,left,0.20091941591817886,None,0,6,6,12,89.34482788,,,,89.33870808,89.93398112501018,90.13970833306666,left,0.20091941591817886,None,demo,001,2025-02-03_13h56.33.003,contrast_sensitivity,2024.2.4,None,2025-02-03 13h56.51.908240 -0500
0.0001,-1,16,7,7,0,left,0.21578762494027615,None,0,7,7,55,90.15058266604319,,,,90.14233166608028,90.75113375,90.97337091597728,left,0.21578762494027615,None,demo,001,2025-02-03_13h56.33.003,contrast_sensitivity,2024.2.4,None,2025-02-03 13h56.51.908240 -0500
1,1,2,8,8,0,right,0.078018083,None,0,8,8,17,90.98414150008466,,,,90.97559208306484,91.56990075006615,91.65144166606478,right,0.078018083,None,demo,001,2025-02-03_13h56.33.003,contrast_sensitivity,2024.2.4,None,2025-02-03 13h56.51.908240 -0500
0.01,-1,4,9,9,0,left,0.091892792,None,0,9,9,32,91.65679120807908,,,,91.65286895807367,92.25096008297987,92.35312049998902,left,0.091892792,None,demo,001,2025-02-03_13h56.33.003,contrast_sensitivity,2024.2.4,None,2025-02-03 13h56.51.908240 -0500
0.01,1,2,10,10,0,right,0.069602416,None,0,10,10,14,92.36020025005564,,,,92.35530046,92.95125508,93.02279642,right,0.069602416,None,demo,001,2025-02-03_13h56.33.003,contrast_sensitivity,2024.2.4,None,2025-02-03 13h56.51.908240 -0500
0.05,1,16,11,11,0,right,0.055792498984374106,None,0,11,11,51,93.03391025,,,,93.02518933301326,93.63808187504765,93.70265679107979,right,0.055792498984374106,None,demo,001,2025-02-03_13h56.33.003,contrast_sensitivity,2024.2.4,None,2025-02-03 13h56.51.908240 -0500
0.05,-1,2,12,12,0,left,0.1508335410617292,None,0,12,12,21,93.71146487502847,,,,93.70458866597619,94.30094537499826,94.47009716602042,left,0.1508335410617292,None,demo,001,2025-02-03_13h56.33.003,contrast_sensitivity,2024.2.4,None,2025-02-03 13h56.51.908240 -0500
0.0001,1,4,13,13,0,right,0.034310041,None,0,13,13,25,94.47833870805334,,,,94.47241845808458,95.06651637505274,95.10545013,right,0.034310041,None,demo,001,2025-02-03_13h56.33.003,contrast_sensitivity,2024.2.4,None,2025-02-03 13h56.51.908240 -0500
0.05,-1,16,14,14,0,left,0.089083875,None,0,14,14,57,95.11643595807254,,,,95.10681012505665,95.70071895804722,95.80260679102503,left,0.089083875,None,demo,001,2025-02-03_13h56.33.003,contrast_sensitivity,2024.2.4,None,2025-02-03 13h56.51.908240 -0500
1,1,1,15,15,0,left,0.9659932909999043,None,0,15,15,5,95.81130950001534,,,,95.80460570799187,96.40171641600318,97.37081220804248,left,0.9659932909999043,None,demo,001,2025-02-03_13h56.33.003,contrast_sensitivity,2024.2.4,None,2025-02-03 13h56.51.908240 -0500
0.01,1,4,16,16,0,right,0.082089916,None,0,16,16,26,97.38315720797982,,,,97.37205054,97.96767179097515,98.05289620801341,right,0.082089916,None,demo,001,2025-02-03_13h56.33.003,contrast_sensitivity,2024.2.4,None,2025-02-03 13h56.51.908240 -0500
0.0001,-1,1,17,17,0,left,0.22494529106188565,None,0,17,17,7,98.06046000006609,,,,98.05530800006818,98.65077687497251,98.88663495797664,left,0.22494529106188565,None,demo,001,2025-02-03_13h56.33.003,contrast_sensitivity,2024.2.4,None,2025-02-03 13h56.51.908240 -0500
0.05,-1,1,18,18,0,left,0.050395166,None,0,18,18,9,98.89376604103018,,,,98.88885620806832,99.48432012507692,99.54084816598333,left,0.050395166,None,demo,001,2025-02-03_13h56.33.003,contrast_sensitivity,2024.2.4,None,2025-02-03 13h56.51.908240 -0500
0.01,-1,1,19,19,0,left,0.005693125,None,0,19,19,8,99.54936941608321,,,,99.54291837499477,100.13822454097681,100.15251749998424,left,0.005693125,None,demo,001,2025-02-03_13h56.33.003,contrast_sensitivity,2024.2.4,None,2025-02-03 13h56.51.908240 -0500
0.01,-1,8,20,20,0,left,0.050676833,None,0,20,20,44,100.16078987508081,,,,100.1553977499716,100.75100591604132,100.8069366,left,0.050676833,None,demo,001,2025-02-03_13h56.33.003,contrast_sensitivity,2024.2.4,None,2025-02-03 13h56.51.908240 -0500
0.01,-1,16,21,21,0,left,0.079034333,None,0,21,21,56,100.81727854104247,,,,100.80911829101387,101.41778904106468,101.50264750001952,left,0.079034333,None,demo,001,2025-02-03_13h56.33.003,contrast_sensitivity,2024.2.4,None,2025-02-03 13h56.51.908240 -0500
0.05,-1,8,22,22,0,left,0.11310383293312043,None,0,22,22,45,101.51064470806159,,,,101.50477033306379,102.1007400000235,102.21988508303184,left,0.11310383293312043,None,demo,001,2025-02-03_13h56.33.003,contrast_sensitivity,2024.2.4,None,2025-02-03 13h56.51.908240 -0500
1e-08,1,1,23,23,0,left,0.5930738740134984,None,0,23,23,0,102.22860308305826,,,,102.22227833303623,102.81653125002049,103.41830479097553,left,0.5930738740134984,None,demo,001,2025-02-03_13h56.33.003,contrast_sensitivity,2024.2.4,None,2025-02-03 13h56.51.908240 -0500
1,-1,16,24,24,0,left,0.7350038749864325,None,0,24,24,59,103.42367141600698,,,,103.41984475008212,104.01761737500783,104.75780820799991,left,0.7350038749864325,None,demo,001,2025-02-03_13h56.33.003,contrast_sensitivity,2024.2.4,None,2025-02-03 13h56.51.908240 -0500
1e-08,-1,2,25,25,0,left,0.1288694579852745,None,0,25,25,18,104.76677745801862,,,,104.76030629104935,105.3556840410456,105.49016920803115,left,0.1288694579852745,None,demo,001,2025-02-03_13h56.33.003,contrast_sensitivity,2024.2.4,None,2025-02-03 13h56.51.908240 -0500
0.1,1,16,26,26,0,right,0.039497083,None,0,26,26,52,105.50053220801055,,,,105.49263104097918,106.1010682079941,106.15294491604436,right,0.039497083,None,demo,001,2025-02-03_13h56.33.003,contrast_sensitivity,2024.2.4,None,2025-02-03 13h56.51.908240 -0500
0.05,1,4,27,27,0,right,0.053642791,None,0,27,27,27,106.16167175001465,,,,106.15513550001197,106.7549258749932,106.81990754103754,right,0.053642791,None,demo,001,2025-02-03_13h56.33.003,contrast_sensitivity,2024.2.4,None,2025-02-03 13h56.51.908240 -0500
0.01,1,1,28,28,0,right,0.45416654099244624,None,0,28,28,2,106.82862408307847,,,,106.82273274997715,107.41732120804954,107.87241670803633,right,0.45416654099244624,None,demo,001,2025-02-03_13h56.33.003,contrast_sensitivity,2024.2.4,None,2025-02-03 13h56.51.908240 -0500
0.0001,1,2,29,29,0,right,0.19707904197275639,None,0,29,29,13,107.88380429102108,,,,107.87376662506722,108.46747129107825,108.67032441601623,right,0.19707904197275639,None,demo,001,2025-02-03_13h56.33.003,contrast_sensitivity,2024.2.4,None,2025-02-03 13h56.51.908240 -0500
0.1,-1,4,30,30,0,left,0.092918417,None,0,30,30,34,108.68386366602499,,,,108.67256075004116,109.26755070802756,109.36920241604093,left,0.092918417,None,demo,001,2025-02-03_13h56.33.003,contrast_sensitivity,2024.2.4,None,2025-02-03 13h56.51.908240 -0500
0.05,-1,4,31,31,0,left,0.05061225,None,0,31,31,33,109.37724029098172,,,,109.37151166598778,109.9718463330064,110.03651937504765,left,0.05061225,None,demo,001,2025-02-03_13h56.33.003,contrast_sensitivity,2024.2.4,None,2025-02-03 13h56.51.908240 -0500
0.01,1,16,32,32,0,right,0.17990312410984188,None,0,32,32,50,110.04514349997044,,,,110.03890949999914,110.63452175003476,110.8185574579984,right,0.17990312410984188,None,demo,001,2025-02-03_13h56.33.003,contrast_sensitivity,2024.2.4,None,2025-02-03 13h56.51.908240 -0500
0.1,-1,2,33,33,0,left,0.041673292056657374,None,0,33,33,22,110.82493987504859,,,,110.82024300005287,111.41672454099171,111.46835633297451,left,0.041673292056657374,None,demo,001,2025-02-03_13h56.33.003,contrast_sensitivity,2024.2.4,None,2025-02-03 13h56.51.908240 -0500
0.1,1,1,34,34,0,right,0.20327429100871086,None,0,34,34,4,111.4734618,,,,111.46979070804082,112.06712000002153,112.27495479106437,right,0.20327429100871086,None,demo,001,2025-02-03_13h56.33.003,contrast_sensitivity,2024.2.4,None,2025-02-03 13h56.51.908240 -0500
0.0001,-1,8,35,35,0,left,0.19556770799681544,None,0,35,35,43,112.28315762500279,,,,112.2769708330743,112.87284237507265,113.07371058303397,left,0.19556770799681544,None,demo,001,2025-02-03_13h56.33.003,contrast_sensitivity,2024.2.4,None,2025-02-03 13h56.51.908240 -0500
1,1,8,36,36,0,right,1.1050743330270052,None,0,36,36,41,113.08364104107022,,,,113.07593704108149,113.67149633297231,114.78675891598687,right,1.1050743330270052,None,demo,001,2025-02-03_13h56.33.003,contrast_sensitivity,2024.2.4,None,2025-02-03 13h56.51.908240 -0500
1,-1,4,37,37,0,left,0.1942262080265209,None,0,37,37,35,114.79489691602066,,,,114.78925808297936,115.3842174160527,115.58669891604222,left,0.1942262080265209,None,demo,001,2025-02-03_13h56.33.003,contrast_sensitivity,2024.2.4,None,2025-02-03 13h56.51.908240 -0500
0.1,1,2,38,38,0,right,0.3841908329632133,None,0,38,38,16,115.59425850003026,,,,115.5890767,116.18410633306485,116.57442258298397,right,0.3841908329632133,None,demo,001,2025-02-03_13h56.33.003,contrast_sensitivity,2024.2.4,None,2025-02-03 13h56.51.908240 -0500
0.1,-1,16,39,39,0,left,0.3318598329788074,None,0,39,39,58,116.58369587501511,,,,116.57692029105965,117.17242029099725,117.50705725001171,left,0.3318598329788074,None,demo,001,2025-02-03_13h56.33.003,contrast_sensitivity,2024.2.4,None,2025-02-03 13h56.51.908240 -0500
0.0001,-1,2,40,40,0,left,0.2911350829526782,None,0,40,40,19,117.5161295,,,,117.50949804100674,118.1051686659921,118.40335820801556,left,0.2911350829526782,None,demo,001,2025-02-03_13h56.33.003,contrast_sensitivity,2024.2.4,None,2025-02-03 13h56.51.908240 -0500
0.0001,-1,4,41,41,0,left,0.042884041,None,0,41,41,31,118.4103601250099,,,,118.40521529107355,119.00035329104867,119.05127050005831,left,0.042884041,None,demo,001,2025-02-03_13h56.33.003,contrast_sensitivity,2024.2.4,None,2025-02-03 13h56.51.908240 -0500
0.0001,1,8,42,42,0,right,0.23351829091552645,None,0,42,42,37,119.05651091597974,,,,119.05271116597578,119.64972845802549,119.88536737498362,right,0.23351829091552645,None,demo,001,2025-02-03_13h56.33.003,contrast_sensitivity,2024.2.4,None,2025-02-03 13h56.51.908240 -0500
1,1,16,43,43,0,right,0.017163041047751904,None,0,43,43,53,119.89152250008192,,,,119.8869557910366,120.48403108306229,120.50651458301581,right,0.017163041047751904,None,demo,001,2025-02-03_13h56.33.003,contrast_sensitivity,2024.2.4,None,2025-02-03 13h56.51.908240 -0500
0.1,1,4,44,44,0,right,0.063626917,None,0,44,44,28,120.51718362502288,,,,120.50910362508148,121.10471737501211,121.17326820804738,right,0.063626917,None,demo,001,2025-02-03_13h56.33.003,contrast_sensitivity,2024.2.4,None,2025-02-03 13h56.51.908240 -0500
1e-08,-1,8,45,45,0,right,0.6785972500219941,None,0,45,45,42,121.18376120796893,,,,121.17590925004333,121.7715803750325,122.45260816602968,right,0.6785972500219941,None,demo,001,2025-02-03_13h56.33.003,contrast_sensitivity,2024.2.4,None,2025-02-03 13h56.51.908240 -0500
1e-08,1,8,46,46,0,left,0.2843880000291392,None,0,46,46,36,122.45894583303016,,,,122.45426875003614,123.05076999997254,123.3398070409894,left,0.2843880000291392,None,demo,001,2025-02-03_13h56.33.003,contrast_sensitivity,2024.2.4,None,2025-02-03 13h56.51.908240 -0500
0.1,-1,1,47,47,0,left,0.1332772079622373,None,0,47,47,10,123.35018929105718,,,,123.34201995807234,123.93784229108132,124.07350816600956,left,0.1332772079622373,None,demo,001,2025-02-03_13h56.33.003,contrast_sensitivity,2024.2.4,None,2025-02-03 13h56.51.908240 -0500
0.0001,1,16,48,48,0,left,0.4628715830622241,None,0,48,48,49,124.08394729101565,,,,124.07574225007556,124.68441850005183,125.15279237506911,left,0.4628715830622241,None,demo,001,2025-02-03_13h56.33.003,contrast_sensitivity,2024.2.4,None,2025-02-03 13h56.51.908240 -0500
0.1,1,8,49,49,0,right,0.050304583040997386,None,0,49,49,40,125.16141075000633,,,,125.15500129107386,125.75075558305252,125.80293191608507,right,0.050304583040997386,None,demo,001,2025-02-03_13h56.33.003,contrast_sensitivity,2024.2.4,None,2025-02-03 13h56.51.908240 -0500
0.01,-1,2,50,50,0,left,0.162338292,None,0,50,50,20,125.81132637499832,,,,125.80536929098889,126.39973870804533,126.56834166601766,left,0.162338292,None,demo,001,2025-02-03_13h56.33.003,contrast_sensitivity,2024.2.4,None,2025-02-03 13h56.51.908240 -0500
1e-08,-1,1,51,51,0,left,0.19954804191365838,None,0,51,51,6,126.5737740410259,,,,126.5699158749776,127.16651870799251,127.3696001250064,left,0.19954804191365838,None,demo,001,2025-02-03_13h56.33.003,contrast_sensitivity,2024.2.4,None,2025-02-03 13h56.51.908240 -0500
0.05,1,2,52,52,0,right,0.23671137494966388,None,0,52,52,15,127.37847437500022,,,,127.37169608299155,127.99034804105759,128.23669733304996,right,0.23671137494966388,None,demo,001,2025-02-03_13h56.33.003,contrast_sensitivity,2024.2.4,None,2025-02-03 13h56.51.908240 -0500
1,-1,8,53,53,0,left,0.034717583,None,0,53,53,47,128.2463699580403,,,,128.23978470801376,128.83448262501042,128.8737199580064,left,0.034717583,None,demo,001,2025-02-03_13h56.33.003,contrast_sensitivity,2024.2.4,None,2025-02-03 13h56.51.908240 -0500
1e-08,-1,16,54,54,0,left,0.12678629101719707,None,0,54,54,54,128.88378400006332,,,,128.87576058297418,129.47126141597982,129.60348012507893,left,0.12678629101719707,None,demo,001,2025-02-03_13h56.33.003,contrast_sensitivity,2024.2.4,None,2025-02-03 13h56.51.908240 -0500
0.0001,1,1,55,55,0,right,0.093941958,None,0,55,55,1,129.6115177910542,,,,129.60570270800963,130.2010480830213,130.30271737498697,right,0.093941958,None,demo,001,2025-02-03_13h56.33.003,contrast_sensitivity,2024.2.4,None,2025-02-03 13h56.51.908240 -0500
0.01,1,8,56,56,0,right,0.24793937499634922,None,0,56,56,38,130.31030750006903,,,,130.30490141606424,130.91802950005513,131.1692609160673,right,0.24793937499634922,None,demo,001,2025-02-03_13h56.33.003,contrast_sensitivity,2024.2.4,None,2025-02-03 13h56.51.908240 -0500
1,-1,1,57,57,0,left,0.085111958,None,0,57,57,11,131.17684987501707,,,,131.17182945797686,131.80886983301025,131.9000569,left,0.085111958,None,demo,001,2025-02-03_13h56.33.003,contrast_sensitivity,2024.2.4,None,2025-02-03 13h56.51.908240 -0500
1,-1,2,58,58,0,left,0.061681708,None,0,58,58,23,131.90256520803086,,,,131.9005865000654,132.4922325409716,132.55655908305198,left,0.061681708,None,demo,001,2025-02-03_13h56.33.003,contrast_sensitivity,2024.2.4,None,2025-02-03 13h56.51.908240 -0500
1e-08,1,4,59,59,0,left,0.34433883300516754,None,0,59,59,24,132.5671893330291,,,,132.55892570805736,133.1676947500091,133.5191747910576,left,0.34433883300516754,None,demo,001,2025-02-03_13h56.33.003,contrast_sensitivity,2024.2.4,None,2025-02-03 13h56.51.908240 -0500
1,-1,2,60,0,1,left,0.031850374,None,1,0,60,23,133.52796379104257,,,,133.52141050004866,134.11707504105289,134.15368458302692,left,0.031850374,None,demo,001,2025-02-03_13h56.33.003,contrast_sensitivity,2024.2.4,None,2025-02-03 13h56.51.908240 -0500
0.0001,1,4,61,1,1,right,0.25967137492261827,None,1,1,61,25,134.16115854098462,,,,134.15613108302932,134.75321087497286,135.0181193749886,right,0.25967137492261827,None,demo,001,2025-02-03_13h56.33.003,contrast_sensitivity,2024.2.4,None,2025-02-03 13h56.51.908240 -0500
0.1,1,8,62,2,1,right,0.13482745795045048,None,1,2,62,40,135.02350558305625,,,,135.01965875003953,135.60607462504413,135.75264950003475,right,0.13482745795045048,None,demo,001,2025-02-03_13h56.33.003,contrast_sensitivity,2024.2.4,None,2025-02-03 13h56.51.908240 -0500
1,-1,1,63,3,1,left,0.11607983300928026,None,1,3,63,11,135.76026158302557,,,,135.75482487503905,136.35077775001992,136.4701798,left,0.11607983300928026,None,demo,001,2025-02-03_13h56.33.003,contrast_sensitivity,2024.2.4,None,2025-02-03 13h56.51.908240 -0500
0.01,-1,8,64,4,1,left,0.16445345804095268,None,1,4,64,44,136.47723525005858,,,,136.47239541599993,137.06735925003886,137.23637733305804,left,0.16445345804095268,None,demo,001,2025-02-03_13h56.33.003,contrast_sensitivity,2024.2.4,None,2025-02-03 13h56.51.908240 -0500
0.05,1,2,65,5,1,right,0.2649362909141928,None,1,5,65,15,137.25063658307772,,,,137.23856458300725,137.8339797910303,138.10184312507045,right,0.2649362909141928,None,demo,001,2025-02-03_13h56.33.003,contrast_sensitivity,2024.2.4,None,2025-02-03 13h56.51.908240 -0500
0.1,1,16,66,6,1,right,0.081831916,None,1,6,66,52,138.1074951660121,,,,138.10305112507194,138.70095870806836,138.78631062502973,right,0.081831916,None,demo,001,2025-02-03_13h56.33.003,contrast_sensitivity,2024.2.4,None,2025-02-03 13h56.51.908240 -0500
1e-08,-1,2,67,7,1,left,0.21367904194630682,None,1,7,67,18,138.79360970808193,,,,138.7882245000219,139.3840747079812,139.603535,left,0.21367904194630682,None,demo,001,2025-02-03_13h56.33.003,contrast_sensitivity,2024.2.4,None,2025-02-03 13h56.51.908240 -0500
0.01,-1,16,68,8,1,left,0.5686175409937277,None,1,8,68,56,139.6109199579805,,,,139.60591283300892,140.20109866606072,140.77331641607452,left,0.5686175409937277,None,demo,001,2025-02-03_13h56.33.003,contrast_sensitivity,2024.2.4,None,2025-02-03 13h56.51.908240 -0500
0.01,1,16,69,9,1,left,0.4329764579888433,None,1,9,69,50,140.78378495806828,,,,140.77507291606162,141.3717462910572,141.8081279579783,left,0.4329764579888433,None,demo,001,2025-02-03_13h56.33.003,contrast_sensitivity,2024.2.4,None,2025-02-03 13h56.51.908240 -0500
0.01,1,4,70,10,1,right,0.26498033304233104,None,1,10,70,26,141.81649145798292,,,,141.8102315000724,142.40471262508072,142.6712034160737,right,0.26498033304233104,None,demo,001,2025-02-03_13h56.33.003,contrast_sensitivity,2024.2.4,None,2025-02-03 13h56.51.908240 -0500
0.05,-1,4,71,11,1,left,0.094872541,None,1,11,71,33,142.68304100004025,,,,142.67284058302175,143.26982016605325,143.36801795801148,left,0.094872541,None,demo,001,2025-02-03_13h56.33.003,contrast_sensitivity,2024.2.4,None,2025-02-03 13h56.51.908240 -0500
1e-08,1,8,72,12,1,left,0.3622996249468997,None,1,12,72,36,143.37341795803513,,,,143.3694591660751,143.95543516601902,144.32427470805123,left,0.3622996249468997,None,demo,001,2025-02-03_13h56.33.003,contrast_sensitivity,2024.2.4,None,2025-02-03 13h56.51.908240 -0500
0.1,-1,8,73,13,1,left,0.18797129194717854,None,1,13,73,46,144.33380362507887,,,,144.32674799999222,144.92169370804913,145.12018233304843,left,0.18797129194717854,None,demo,001,2025-02-03_13h56.33.003,contrast_sensitivity,2024.2.4,None,2025-02-03 13h56.51.908240 -0500
0.0001,-1,1,74,14,1,left,0.3721745410002768,None,1,14,74,7,145.12913666607346,,,,145.12297641602345,145.71742483298294,146.10265391599387,left,0.3721745410002768,None,demo,001,2025-02-03_13h56.33.003,contrast_sensitivity,2024.2.4,None,2025-02-03 13h56.51.908240 -0500
1,-1,4,75,15,1,left,0.14793645800091326,None,1,15,75,35,146.11134670802858,,,,146.10491020802874,146.70066800003406,146.85319920803886,left,0.14793645800091326,None,demo,001,2025-02-03_13h56.33.003,contrast_sensitivity,2024.2.4,None,2025-02-03 13h56.51.908240 -0500
0.01,1,2,76,16,1,right,0.2047352489316836,None,1,16,76,14,146.86114454106428,,,,146.85554970800877,147.4508686660556,147.67034983297344,right,0.2047352489316836,None,demo,001,2025-02-03_13h56.33.003,contrast_sensitivity,2024.2.4,None,2025-02-03 13h56.51.908240 -0500
0.1,1,4,77,17,1,right,0.16783729195594788,None,1,17,77,28,147.68433195806574,,,,147.67284000001382,148.27173000003677,148.45285254099872,right,0.16783729195594788,None,demo,001,2025-02-03_13h56.33.003,contrast_sensitivity,2024.2.4,None,2025-02-03 13h56.51.908240 -0500
1e-08,1,16,78,18,1,left,0.20568699995055795,None,1,18,78,48,148.46763745800126,,,,148.4548967910232,149.0508591249818,149.27048912504688,left,0.20568699995055795,None,demo,001,2025-02-03_13h56.33.003,contrast_sensitivity,2024.2.4,None,2025-02-03 13h56.51.908240 -0500
1e-08,-1,16,79,19,1,left,0.17279700003564358,None,1,19,79,54,149.27916320797522,,,,149.27303050004411,149.8677089579869,150.05290870799217,left,0.17279700003564358,None,demo,001,2025-02-03_13h56.33.003,contrast_sensitivity,2024.2.4,None,2025-02-03 13h56.51.908240 -0500
1e-08,-1,1,80,20,1,left,0.4864442079560831,None,1,20,80,6,150.06184041604865,,,,150.05515245802235,150.65003329108004,151.1379759160336,left,0.4864442079560831,None,demo,001,2025-02-03_13h56.33.003,contrast_sensitivity,2024.2.4,None,2025-02-03 13h56.51.908240 -0500
0.1,-1,2,81,21,1,left,0.3312296239892021,None,1,21,81,22,151.1497543,,,,151.1394636250334,151.73723666602746,152.0728954160586,left,0.3312296239892021,None,demo,001,2025-02-03_13h56.33.003,contrast_sensitivity,2024.2.4,None,2025-02-03 13h56.51.908240 -0500
0.05,1,1,82,22,1,right,0.40804024995304644,None,1,22,82,3,152.0837407,,,,152.0742188,152.66965287504718,153.08673912507948,right,0.40804024995304644,None,demo,001,2025-02-03_13h56.33.003,contrast_sensitivity,2024.2.4,None,2025-02-03 13h56.51.908240 -0500
0.0001,1,1,83,23,1,right,0.19238279201090336,None,1,23,83,1,153.09545804106165,,,,153.08899358299095,153.68413750000764,153.88613504101522,right,0.19238279201090336,None,demo,001,2025-02-03_13h56.33.003,contrast_sensitivity,2024.2.4,None,2025-02-03 13h56.51.908240 -0500
0.05,-1,1,84,24,1,left,0.35733991593588144,None,1,24,84,9,153.89301470806822,,,,153.88840254105162,154.50104566605296,154.87010279099923,left,0.35733991593588144,None,demo,001,2025-02-03_13h56.33.003,contrast_sensitivity,2024.2.4,None,2025-02-03 13h56.51.908240 -0500
1,1,1,85,25,1,right,0.3740084170131013,None,1,25,85,5,154.87811695807613,,,,154.8723682910204,155.46751275006682,155.85282916598953,right,0.3740084170131013,None,demo,001,2025-02-03_13h56.33.003,contrast_sensitivity,2024.2.4,None,2025-02-03 13h56.51.908240 -0500
0.01,-1,4,86,26,1,left,0.21466383303049952,None,1,26,86,32,155.8617295830045,,,,155.85490612499416,156.4506896659732,156.67025991599075,left,0.21466383303049952,None,demo,001,2025-02-03_13h56.33.003,contrast_sensitivity,2024.2.4,None,2025-02-03 13h56.51.908240 -0500
1,1,8,87,27,1,right,0.2179552080342546,None,1,27,87,41,156.68399337504525,,,,156.67269141599536,157.26740391599014,157.48947458306793,right,0.2179552080342546,None,demo,001,2025-02-03_13h56.33.003,contrast_sensitivity,2024.2.4,None,2025-02-03 13h56.51.908240 -0500
0.0001,-1,4,88,28,1,left,0.12990854203235358,None,1,28,88,31,157.50044295797125,,,,157.4921786,158.0884050410241,158.2244418329792,left,0.12990854203235358,None,demo,001,2025-02-03_13h56.33.003,contrast_sensitivity,2024.2.4,None,2025-02-03 13h56.51.908240 -0500
1e-08,1,1,89,29,1,right,0.22562537400517613,None,1,29,89,0,158.2330605830066,,,,158.2264575830195,158.8196655830834,159.0520816249773,right,0.22562537400517613,None,demo,001,2025-02-03_13h56.33.003,contrast_sensitivity,2024.2.4,None,2025-02-03 13h56.51.908240 -0500
0.01,-1,2,90,30,1,right,0.1426373739959672,None,1,30,90,20,159.05805291607976,,,,159.05391295801383,159.64981400000397,159.80220704106614,right,0.1426373739959672,None,demo,001,2025-02-03_13h56.33.003,contrast_sensitivity,2024.2.4,None,2025-02-03 13h56.51.908240 -0500
1e-08,1,4,91,31,1,right,0.6413399159209803,None,1,31,91,24,159.80976779107004,,,,159.80423791601788,160.40088512504008,161.0519288330106,right,0.6413399159209803,None,demo,001,2025-02-03_13h56.33.003,contrast_sensitivity,2024.2.4,None,2025-02-03 13h56.51.908240 -0500
0.0001,-1,8,92,32,1,left,0.2998898329678923,None,1,32,92,43,161.0578553749947,,,,161.0532323330408,161.65039533306845,161.95326620806009,left,0.2998898329678923,None,demo,001,2025-02-03_13h56.33.003,contrast_sensitivity,2024.2.4,None,2025-02-03 13h56.51.908240 -0500
0.05,1,16,93,33,1,right,0.27019512408878654,None,1,33,93,51,161.96168537507765,,,,161.95549033302814,162.55099541600794,162.82325758307707,right,0.27019512408878654,None,demo,001,2025-02-03_13h56.33.003,contrast_sensitivity,2024.2.4,None,2025-02-03 13h56.51.908240 -0500
0.1,-1,4,94,34,1,left,0.18093549890909344,None,1,34,94,34,162.83380899997428,,,,162.82552104105707,163.43526991608087,163.61966154107358,left,0.18093549890909344,None,demo,001,2025-02-03_13h56.33.003,contrast_sensitivity,2024.2.4,None,2025-02-03 13h56.51.908240 -0500
1,1,4,95,35,1,right,0.087704042,None,1,35,95,29,163.62806762498803,,,,163.62167704105377,164.2174370000139,164.31872566603124,right,0.087704042,None,demo,001,2025-02-03_13h56.33.003,contrast_sensitivity,2024.2.4,None,2025-02-03 13h56.51.908240 -0500
0.0001,-1,2,96,36,1,left,0.14680895791389048,None,1,36,96,19,164.32418670807965,,,,164.32002937502693,164.91737833304796,165.06978191598319,left,0.14680895791389048,None,demo,001,2025-02-03_13h56.33.003,contrast_sensitivity,2024.2.4,None,2025-02-03 13h56.51.908240 -0500
1,1,16,97,37,1,right,0.067495583,None,1,37,97,53,165.07779183296952,,,,165.0721914160531,165.66763483302202,165.7400191,right,0.067495583,None,demo,001,2025-02-03_13h56.33.003,contrast_sensitivity,2024.2.4,None,2025-02-03 13h56.51.908240 -0500
0.1,-1,16,98,38,1,left,0.2340097080450505,None,1,38,98,58,165.75047408300452,,,,165.74229962506797,166.33810379100032,166.5859626660822,left,0.2340097080450505,None,demo,001,2025-02-03_13h56.33.003,contrast_sensitivity,2024.2.4,None,2025-02-03 13h56.51.908240 -0500
0.05,-1,2,99,39,1,left,0.24287258298136294,None,1,39,99,21,166.5949277500622,,,,166.58829545800108,167.18319708306808,167.43435395800043,left,0.24287258298136294,None,demo,001,2025-02-03_13h56.33.003,contrast_sensitivity,2024.2.4,None,2025-02-03 13h56.51.908240 -0500
0.01,1,1,100,40,1,left,0.4984403330599889,None,1,40,100,2,167.44072383304592,,,,167.4366980000632,168.02266133297235,168.5365963750519,left,0.4984403330599889,None,demo,001,2025-02-03_13h56.33.003,contrast_sensitivity,2024.2.4,None,2025-02-03 13h56.51.908240 -0500
0.1,1,2,101,41,1,right,0.24803749902639538,None,1,41,101,16,168.55070925003383,,,,168.5387604580028,169.13402533298358,169.38604604103602,right,0.24803749902639538,None,demo,001,2025-02-03_13h56.33.003,contrast_sensitivity,2024.2.4,None,2025-02-03 13h56.51.908240 -0500
0.0001,1,2,102,42,1,right,0.1700386240845546,None,1,42,102,13,169.3948229580419,,,,169.3886755410349,169.9839645830216,170.15692562505137,right,0.1700386240845546,None,demo,001,2025-02-03_13h56.33.003,contrast_sensitivity,2024.2.4,None,2025-02-03 13h56.51.908240 -0500
0.0001,1,8,103,43,1,right,0.5234535409836099,None,1,43,103,37,170.16709341597743,,,,170.15911937505007,170.75554008304607,171.28647833305877,right,0.5234535409836099,None,demo,001,2025-02-03_13h56.33.003,contrast_sensitivity,2024.2.4,None,2025-02-03 13h56.51.908240 -0500
0.01,-1,1,104,44,1,left,0.6518093749182299,None,1,44,104,8,171.29489925003145,,,,171.28892454097513,171.88417741598096,172.54034591605887,left,0.6518093749182299,None,demo,001,2025-02-03_13h56.33.003,contrast_sensitivity,2024.2.4,None,2025-02-03 13h56.51.908240 -0500
1,-1,8,105,45,1,left,0.096635999,None,1,45,105,47,172.55023512500338,,,,172.54285500000697,173.13832899997942,173.25288625003304,left,0.096635999,None,demo,001,2025-02-03_13h56.33.003,contrast_sensitivity,2024.2.4,None,2025-02-03 13h56.51.908240 -0500
0.05,1,8,106,46,1,right,0.091286125,None,1,46,106,39,173.2674772500759,,,,173.25502033298835,173.85074045800138,173.95240800001193,right,0.091286125,None,demo,001,2025-02-03_13h56.33.003,contrast_sensitivity,2024.2.4,None,2025-02-03 13h56.51.908240 -0500
0.1,-1,1,107,47,1,left,0.052738333004526794,None,1,47,107,10,173.96117775002494,,,,173.9546890410129,174.55117120803334,174.6064578749938,left,0.052738333004526794,None,demo,001,2025-02-03_13h56.33.003,contrast_sensitivity,2024.2.4,None,2025-02-03 13h56.51.908240 -0500
1e-08,-1,8,108,48,1,left,0.1414573750225827,None,1,48,108,42,174.61713233299088,,,,174.60868687496986,175.20346754102502,175.3519095829688,left,0.1414573750225827,None,demo,001,2025-02-03_13h56.33.003,contrast_sensitivity,2024.2.4,None,2025-02-03 13h56.51.908240 -0500
0.05,-1,8,109,49,1,left,0.056040207971818745,None,1,49,109,45,175.35799437505193,,,,175.35351991606876,175.9498415410053,176.0181774,left,0.056040207971818745,None,demo,001,2025-02-03_13h56.33.003,contrast_sensitivity,2024.2.4,None,2025-02-03 13h56.51.908240 -0500
1e-08,-1,4,110,50,1,left,0.5568317079450935,None,1,50,110,30,176.0239493,,,,176.02022204105742,176.61803829099517,177.18706987507176,left,0.5568317079450935,None,demo,001,2025-02-03_13h56.33.003,contrast_sensitivity,2024.2.4,None,2025-02-03 13h56.51.908240 -0500
0.05,1,4,111,51,1,right,0.16849770804401487,None,1,51,111,27,177.20084533304907,,,,177.18900570797268,177.78432362503372,177.9565720410319,right,0.16849770804401487,None,demo,001,2025-02-03_13h56.33.003,contrast_sensitivity,2024.2.4,None,2025-02-03 13h56.51.908240 -0500
1e-08,1,2,112,52,1,right,0.31610029097646475,None,1,52,112,12,177.96702629106585,,,,177.95991587499157,178.5557320410153,178.87359933299012,right,0.31610029097646475,None,demo,001,2025-02-03_13h56.33.003,contrast_sensitivity,2024.2.4,None,2025-02-03 13h56.51.908240 -0500
0.1,1,1,113,53,1,right,0.24805387505330145,None,1,53,113,4,178.88383970805444,,,,178.8756636250764,179.47179245797452,179.7235220830189,right,0.24805387505330145,None,demo,001,2025-02-03_13h56.33.003,contrast_sensitivity,2024.2.4,None,2025-02-03 13h56.51.908240 -0500
0.0001,-1,16,114,54,1,right,0.44013804104179144,None,1,54,114,55,179.7337788749719,,,,179.72584025003016,180.32079804106615,180.7698717500316,right,0.44013804104179144,None,demo,001,2025-02-03_13h56.33.003,contrast_sensitivity,2024.2.4,None,2025-02-03 13h56.51.908240 -0500
1,-1,16,115,55,1,left,0.093512625,None,1,55,115,59,180.77849937498104,,,,180.7721779580461,181.36738383304328,181.4700042080367,left,0.093512625,None,demo,001,2025-02-03_13h56.33.003,contrast_sensitivity,2024.2.4,None,2025-02-03 13h56.51.908240 -0500
0.01,1,8,116,56,1,right,0.30542041698936373,None,1,56,116,38,181.4777710409835,,,,181.4723227500217,182.06733966607135,182.38611700001638,right,0.30542041698936373,None,demo,001,2025-02-03_13h56.33.003,contrast_sensitivity,2024.2.4,None,2025-02-03 13h56.51.908240 -0500
1,1,2,117,57,1,right,0.086497333,None,1,57,117,17,182.39480100001674,,,,182.38848866603803,182.9842091660248,183.07355700002518,right,0.086497333,None,demo,001,2025-02-03_13h56.33.003,contrast_sensitivity,2024.2.4,None,2025-02-03 13h56.51.908240 -0500
0.0001,1,16,118,58,1,left,0.41778387501835823,None,1,58,118,49,183.08370900002774,,,,183.07546179101337,183.67090458306484,184.1019559999695,left,0.41778387501835823,None,demo,001,2025-02-03_13h56.33.003,contrast_sensitivity,2024.2.4,None,2025-02-03 13h56.51.908240 -0500
0.05,-1,16,119,59,1,left,0.13858395803254098,None,1,59,119,57,184.10802337503992,,,,184.10350237507373,184.7000644999789,184.85374599997886,left,0.13858395803254098,None,demo,001,2025-02-03_13h56.33.003,contrast_sensitivity,2024.2.4,None,2025-02-03 13h56.51.908240 -0500
0.05,1,16,120,0,2,right,0.17874008300714195,None,2,0,120,51,184.86762445804197,,,,184.85593399999198,185.4678709160071,185.65116995805874,right,0.17874008300714195,None,demo,001,2025-02-03_13h56.33.003,contrast_sensitivity,2024.2.4,None,2025-02-03 13h56.51.908240 -0500
1e-08,1,2,121,1,2,left,0.43860274995677173,None,2,1,121,12,185.65712487499695,,,,185.6525135000702,186.2410941249691,186.6861824580701,left,0.43860274995677173,None,demo,001,2025-02-03_13h56.33.003,contrast_sensitivity,2024.2.4,None,2025-02-03 13h56.51.908240 -0500
1,-1,16,122,2,2,left,0.1905805409187451,None,2,2,122,59,186.69449504103977,,,,186.6881571,187.28405000001658,187.48574220808223,left,0.1905805409187451,None,demo,001,2025-02-03_13h56.33.003,contrast_sensitivity,2024.2.4,None,2025-02-03 13h56.51.908240 -0500
1,1,2,123,3,2,right,0.1049361249897629,None,2,3,123,17,187.4940595830558,,,,187.4874568330124,188.10167145798914,188.22002779098693,right,0.1049361249897629,None,demo,001,2025-02-03_13h56.33.003,contrast_sensitivity,2024.2.4,None,2025-02-03 13h56.51.908240 -0500
0.0001,1,16,124,4,2,right,0.425975333,None,2,4,124,49,188.22888937499374,,,,188.22320666606538,188.83462454099208,189.26935437507927,right,0.425975333,None,demo,001,2025-02-03_13h56.33.003,contrast_sensitivity,2024.2.4,None,2025-02-03 13h56.51.908240 -0500
0.05,-1,2,125,5,2,left,0.20636562502477318,None,2,5,125,21,189.28425300004892,,,,189.27129158307798,189.88515191606712,190.1029289580183,left,0.20636562502477318,None,demo,001,2025-02-03_13h56.33.003,contrast_sensitivity,2024.2.4,None,2025-02-03 13h56.51.908240 -0500
0.1,-1,2,126,6,2,left,0.019146998994983733,None,2,6,126,22,190.1180482080672,,,,190.10496312507894,190.70543333305977,190.7283742079744,left,0.019146998994983733,None,demo,001,2025-02-03_13h56.33.003,contrast_sensitivity,2024.2.4,None,2025-02-03 13h56.51.908240 -0500
0.05,1,1,127,7,2,right,0.073076041,None,2,7,127,3,190.75070491607767,,,,190.72978833306115,191.32001587504055,191.40165441599675,right,0.073076041,None,demo,001,2025-02-03_13h56.33.003,contrast_sensitivity,2024.2.4,None,2025-02-03 13h56.51.908240 -0500
0.05,-1,8,128,8,2,left,0.06044725,None,2,8,128,45,191.40737620799337,,,,191.4029682080727,192.00003837503027,192.06811141606886,left,0.06044725,None,demo,001,2025-02-03_13h56.33.003,contrast_sensitivity,2024.2.4,None,2025-02-03 13h56.51.908240 -0500
0.0001,-1,4,129,9,2,left,0.2319262500386685,None,2,9,129,31,192.0731462,,,,192.06946904107463,192.65555870800745,192.88973379100207,left,0.2319262500386685,None,demo,001,2025-02-03_13h56.33.003,contrast_sensitivity,2024.2.4,None,2025-02-03 13h56.51.908240 -0500
0.0001,1,1,130,10,2,left,0.28026675002183765,None,2,10,130,1,192.90080308297183,,,,192.89200266601983,193.48819908301812,193.7865144580137,left,0.28026675002183765,None,demo,001,2025-02-03_13h56.33.003,contrast_sensitivity,2024.2.4,None,2025-02-03 13h56.51.908240 -0500
1,1,1,131,11,2,right,0.034212499,None,2,11,131,5,193.80043945799116,,,,193.78854895802215,194.38421087502502,194.43615541607141,right,0.034212499,None,demo,001,2025-02-03_13h56.33.003,contrast_sensitivity,2024.2.4,None,2025-02-03 13h56.51.908240 -0500
1e-08,-1,2,132,12,2,left,0.2103562499396503,None,2,12,132,18,194.4509675410809,,,,194.4385829580715,195.0341637909878,195.2526638749987,left,0.2103562499396503,None,demo,001,2025-02-03_13h56.33.003,contrast_sensitivity,2024.2.4,None,2025-02-03 13h56.51.908240 -0500
0.01,1,1,133,13,2,left,0.7349170830566436,None,2,13,133,2,195.25991891603917,,,,195.25536208297126,195.8684397910256,196.60698150005192,left,0.7349170830566436,None,demo,001,2025-02-03_13h56.33.003,contrast_sensitivity,2024.2.4,None,2025-02-03 13h56.51.908240 -0500
1,-1,2,134,14,2,left,0.14904145803302526,None,2,14,134,23,196.6170473,,,,196.60860345803667,197.20437504106667,197.35793787497096,left,0.14904145803302526,None,demo,001,2025-02-03_13h56.33.003,contrast_sensitivity,2024.2.4,None,2025-02-03 13h56.51.908240 -0500
0.1,1,1,135,15,2,right,0.11962462496012449,None,2,15,135,4,197.36634025000967,,,,197.35997800005134,197.95576083299238,198.0859854160808,right,0.11962462496012449,None,demo,001,2025-02-03_13h56.33.003,contrast_sensitivity,2024.2.4,None,2025-02-03 13h56.51.908240 -0500
0.1,1,8,136,16,2,right,0.059363292064517736,None,2,16,136,40,198.09252404107247,,,,198.0882686660625,198.68415320804343,198.7529998329701,right,0.059363292064517736,None,demo,001,2025-02-03_13h56.33.003,contrast_sensitivity,2024.2.4,None,2025-02-03 13h56.51.908240 -0500
0.0001,-1,1,137,17,2,left,0.39384958299342543,None,2,17,137,7,198.76104033307638,,,,198.7552946250653,199.3504536660621,199.75131166598294,left,0.39384958299342543,None,demo,001,2025-02-03_13h56.33.003,contrast_sensitivity,2024.2.4,None,2025-02-03 13h56.51.908240 -0500
0.1,-1,1,138,18,2,left,0.7622722500236705,None,2,18,138,10,199.75751041597687,,,,199.75281270802952,200.3501684999792,201.11975108308252,left,0.7622722500236705,None,demo,001,2025-02-03_13h56.33.003,contrast_sensitivity,2024.2.4,None,2025-02-03 13h56.51.908240 -0500
0.1,-1,8,139,19,2,left,0.1078346660360694,None,2,19,139,46,201.12825225002598,,,,201.12176600005478,201.7174636659911,201.83630679105408,left,0.1078346660360694,None,demo,001,2025-02-03_13h56.33.003,contrast_sensitivity,2024.2.4,None,2025-02-03 13h56.51.908240 -0500
0.01,-1,4,140,20,2,left,0.099260375,None,2,20,140,32,201.85069129103795,,,,201.83878033305518,202.43402937497012,202.53700308303814,left,0.099260375,None,demo,001,2025-02-03_13h56.33.003,contrast_sensitivity,2024.2.4,None,2025-02-03 13h56.51.908240 -0500
0.0001,1,2,141,21,2,left,0.2516768330242485,None,2,21,141,13,202.55074779107235,,,,202.53878679103218,203.1339687909931,203.3907302080188,left,0.2516768330242485,None,demo,001,2025-02-03_13h56.33.003,contrast_sensitivity,2024.2.4,None,2025-02-03 13h56.51.908240 -0500
0.0001,1,4,142,22,2,right,0.2745339999673888,None,2,22,142,25,203.4004334580386,,,,203.39270570804365,203.9886556660058,204.26803916599602,right,0.2745339999673888,None,demo,001,2025-02-03_13h56.33.003,contrast_sensitivity,2024.2.4,None,2025-02-03 13h56.51.908240 -0500
0.01,1,8,143,23,2,right,0.088139833,None,2,23,143,38,204.27449566603173,,,,204.26967920805328,204.86880195804406,204.9698363749776,right,0.088139833,None,demo,001,2025-02-03_13h56.33.003,contrast_sensitivity,2024.2.4,None,2025-02-03 13h56.51.908240 -0500
0.01,-1,8,144,24,2,left,0.1543199580628425,None,2,24,144,44,204.97881858306937,,,,204.971799,205.56687558302656,205.73655575001612,left,0.1543199580628425,None,demo,001,2025-02-03_13h56.33.003,contrast_sensitivity,2024.2.4,None,2025-02-03 13h56.51.908240 -0500
0.1,-1,16,145,25,2,left,0.006039666,None,2,25,145,58,205.75085483305156,,,,205.7387001659954,206.3331103749806,206.35105820803437,left,0.006039666,None,demo,001,2025-02-03_13h56.33.003,contrast_sensitivity,2024.2.4,None,2025-02-03 13h56.51.908240 -0500
0.05,-1,16,146,26,2,left,0.058596375049091876,None,2,26,146,57,206.35664350003935,,,,206.3522952500498,206.93859333300497,207.0014579159906,left,0.058596375049091876,None,demo,001,2025-02-03_13h56.33.003,contrast_sensitivity,2024.2.4,None,2025-02-03 13h56.51.908240 -0500
0.0001,-1,8,147,27,2,left,0.17932108300738037,None,2,27,147,43,207.00548562500626,,,,207.00287779106293,207.5997820830671,207.7857674160041,left,0.17932108300738037,None,demo,001,2025-02-03_13h56.33.003,contrast_sensitivity,2024.2.4,None,2025-02-03 13h56.51.908240 -0500
1,1,4,148,28,2,right,0.028150583,None,2,28,148,29,207.79130845807958,,,,207.7873688749969,208.3841196660651,208.41992850007955,right,0.028150583,None,demo,001,2025-02-03_13h56.33.003,contrast_sensitivity,2024.2.4,None,2025-02-03 13h56.51.908240 -0500
0.05,1,4,149,29,2,right,0.039303916,None,2,29,149,27,208.4287827910157,,,,208.42212454101536,209.0347893750295,209.08565329108387,right,0.039303916,None,demo,001,2025-02-03_13h56.33.003,contrast_sensitivity,2024.2.4,None,2025-02-03 13h56.51.908240 -0500
0.1,1,2,150,30,2,right,0.7548029160825536,None,2,30,150,16,209.09393729106523,,,,209.08762270805892,209.68513254099526,210.4531214160379,right,0.7548029160825536,None,demo,001,2025-02-03_13h56.33.003,contrast_sensitivity,2024.2.4,None,2025-02-03 13h56.51.908240 -0500
0.0001,-1,16,151,31,2,left,0.072205,None,2,31,151,55,210.46147500001825,,,,210.45546462503262,211.0508702910738,211.1361502,left,0.072205,None,demo,001,2025-02-03_13h56.33.003,contrast_sensitivity,2024.2.4,None,2025-02-03 13h56.51.908240 -0500
0.1,-1,4,152,32,2,left,0.011741333059035242,None,2,32,152,34,211.1507587080123,,,,211.1385969,211.75131458300166,211.76960508304182,left,0.011741333059035242,None,demo,001,2025-02-03_13h56.33.003,contrast_sensitivity,2024.2.4,None,2025-02-03 13h56.51.908240 -0500
0.1,1,4,153,33,2,right,0.076877417,None,2,33,153,28,211.78402720799204,,,,211.77190154104028,212.3673069999786,212.45329354098067,right,0.076877417,None,demo,001,2025-02-03_13h56.33.003,contrast_sensitivity,2024.2.4,None,2025-02-03 13h56.51.908240 -0500
1e-08,-1,4,154,34,2,left,0.4661628329195082,None,2,34,154,30,212.4622224579798,,,,212.4555741250515,213.05084062507376,213.51972979097627,left,0.4661628329195082,None,demo,001,2025-02-03_13h56.33.003,contrast_sensitivity,2024.2.4,None,2025-02-03 13h56.51.908240 -0500
0.05,-1,4,155,35,2,left,0.6076210410101339,None,2,35,155,33,213.52848591597285,,,,213.52182162506506,214.11737170803826,214.73440933297388,left,0.6076210410101339,None,demo,001,2025-02-03_13h56.33.003,contrast_sensitivity,2024.2.4,None,2025-02-03 13h56.51.908240 -0500
0.0001,-1,2,156,36,2,left,0.3652544169453904,None,2,36,156,19,214.73965862498153,,,,214.73575200000778,215.33302875002846,215.70149970799685,left,0.3652544169453904,None,demo,001,2025-02-03_13h56.33.003,contrast_sensitivity,2024.2.4,None,2025-02-03 13h56.51.908240 -0500
1e-08,-1,1,157,37,2,left,0.42222212499473244,None,2,37,157,6,215.7097392079886,,,,215.70318279101048,216.28872575005516,216.71899245807435,left,0.42222212499473244,None,demo,001,2025-02-03_13h56.33.003,contrast_sensitivity,2024.2.4,None,2025-02-03 13h56.51.908240 -0500
0.01,-1,1,158,38,2,left,0.4124170830473304,None,2,38,158,8,216.72705166600645,,,,216.7208204580238,217.31750062503852,217.73612304101698,left,0.4124170830473304,None,demo,001,2025-02-03_13h56.33.003,contrast_sensitivity,2024.2.4,None,2025-02-03 13h56.51.908240 -0500
1e-08,-1,8,159,39,2,left,0.4281713330419734,None,2,39,159,42,217.74483366601635,,,,217.73854545806535,218.3338644580217,218.76969141606241,left,0.4281713330419734,None,demo,001,2025-02-03_13h56.33.003,contrast_sensitivity,2024.2.4,None,2025-02-03 13h56.51.908240 -0500
0.05,1,2,160,40,2,right,0.3936295409221202,None,2,40,160,15,218.77754333300982,,,,218.77197329106275,219.36738670803607,219.77001212502364,right,0.3936295409221202,None,demo,001,2025-02-03_13h56.33.003,contrast_sensitivity,2024.2.4,None,2025-02-03 13h56.51.908240 -0500
1e-08,1,16,161,41,2,right,0.5713522919686511,None,2,41,161,48,219.7787974580424,,,,219.7727816250408,220.3675174,220.94072608300485,right,0.5713522919686511,None,demo,001,2025-02-03_13h56.33.003,contrast_sensitivity,2024.2.4,None,2025-02-03 13h56.51.908240 -0500
0.05,-1,1,162,42,2,left,0.37999658298213035,None,2,42,162,9,220.95044091599993,,,,220.94257770804688,221.53387058305088,221.9195102499798,left,0.37999658298213035,None,demo,001,2025-02-03_13h56.33.003,contrast_sensitivity,2024.2.4,None,2025-02-03 13h56.51.908240 -0500
0.05,1,8,163,43,2,right,0.3840652910294011,None,2,43,163,39,221.92670887499116,,,,221.92184879106935,222.51766720798332,222.90441045805346,right,0.3840652910294011,None,demo,001,2025-02-03_13h56.33.003,contrast_sensitivity,2024.2.4,None,2025-02-03 13h56.51.908240 -0500
0.01,1,16,164,44,2,right,0.7529951250180602,None,2,44,164,50,222.9164690830512,,,,222.90592129097786,223.5027311660815,224.2702130409889,right,0.7529951250180602,None,demo,001,2025-02-03_13h56.33.003,contrast_sensitivity,2024.2.4,None,2025-02-03 13h56.51.908240 -0500
0.0001,1,8,165,45,2,right,0.4531018330017105,None,2,45,165,37,224.27869316597935,,,,224.27259795798454,224.8675797500182,225.32324495806824,right,0.4531018330017105,None,demo,001,2025-02-03_13h56.33.003,contrast_sensitivity,2024.2.4,None,2025-02-03 13h56.51.908240 -0500
0.1,1,16,166,46,2,right,0.14892000006511807,None,2,46,166,52,225.33385975006968,,,,225.32540783297736,225.92178204108495,226.07353833306115,right,0.14892000006511807,None,demo,001,2025-02-03_13h56.33.003,contrast_sensitivity,2024.2.4,None,2025-02-03 13h56.51.908240 -0500
1,1,8,167,47,2,right,0.1695242919959128,None,2,47,167,41,226.08383245801087,,,,226.07581620803103,226.67332900001202,226.85240520804655,right,0.1695242919959128,None,demo,001,2025-02-03_13h56.33.003,contrast_sensitivity,2024.2.4,None,2025-02-03 13h56.51.908240 -0500
0.01,-1,16,168,48,2,right,0.10086249990854412,None,2,48,168,56,226.86080283299088,,,,226.85454029100947,227.45076445804443,227.55743629101198,right,0.10086249990854412,None,demo,001,2025-02-03_13h56.33.003,contrast_sensitivity,2024.2.4,None,2025-02-03 13h56.51.908240 -0500
1e-08,1,4,169,49,2,left,0.3041374159511179,None,2,49,169,24,227.56708641606383,,,,227.55936579103582,228.15485595806967,228.46902641607448,left,0.3041374159511179,None,demo,001,2025-02-03_13h56.33.003,contrast_sensitivity,2024.2.4,None,2025-02-03 13h56.51.908240 -0500
1e-08,1,8,170,50,2,right,0.34543320804368705,None,2,50,170,36,228.47810525004752,,,,228.47105120797642,229.06738025008235,229.41942212497815,right,0.34543320804368705,None,demo,001,2025-02-03_13h56.33.003,contrast_sensitivity,2024.2.4,None,2025-02-03 13h56.51.908240 -0500
1e-08,-1,16,171,51,2,left,0.6152028749929741,None,2,51,171,54,229.42781849997118,,,,229.42164924996905,230.01738704100717,230.63695208297577,left,0.6152028749929741,None,demo,001,2025-02-03_13h56.33.003,contrast_sensitivity,2024.2.4,None,2025-02-03 13h56.51.908240 -0500
1,-1,8,172,52,2,left,0.39326079096645117,None,2,52,172,47,230.6449985409854,,,,230.6392487080302,231.23328587505966,231.63500383298378,left,0.39326079096645117,None,demo,001,2025-02-03_13h56.33.003,contrast_sensitivity,2024.2.4,None,2025-02-03 13h56.51.908240 -0500
1e-08,1,1,173,53,2,left,0.1730827500578016,None,2,53,173,0,231.6413854160346,,,,231.6364382080501,232.23449295805767,232.41823375003878,left,0.1730827500578016,None,demo,001,2025-02-03_13h56.33.003,contrast_sensitivity,2024.2.4,None,2025-02-03 13h56.51.908240 -0500
0.01,-1,2,174,54,2,left,0.15849887498188764,None,2,54,174,20,232.42461070802528,,,,232.41960245801602,233.00703508302104,233.1702921250835,left,0.15849887498188764,None,demo,001,2025-02-03_13h56.33.003,contrast_sensitivity,2024.2.4,None,2025-02-03 13h56.51.908240 -0500
0.01,1,4,175,55,2,right,0.2303522500442341,None,2,55,175,26,233.18408595805522,,,,233.17238208302297,233.7851534159854,234.01914204098284,right,0.2303522500442341,None,demo,001,2025-02-03_13h56.33.003,contrast_sensitivity,2024.2.4,None,2025-02-03 13h56.51.908240 -0500
1,-1,1,176,56,2,left,0.18305195809807628,None,2,56,176,11,234.03399795806035,,,,234.02035950007848,234.61745458305813,234.80321991606615,left,0.18305195809807628,None,demo,001,2025-02-03_13h56.33.003,contrast_sensitivity,2024.2.4,None,2025-02-03 13h56.51.908240 -0500
1,1,16,177,57,2,right,0.3136922080302611,None,2,57,177,53,234.81748841598164,,,,234.8053187080659,235.40091383305844,235.7195072909817,right,0.3136922080302611,None,demo,001,2025-02-03_13h56.33.003,contrast_sensitivity,2024.2.4,None,2025-02-03 13h56.51.908240 -0500
1,-1,4,178,58,2,left,0.069990542,None,2,58,178,35,235.7265572079923,,,,235.72180679102894,236.31648166605737,236.38857012498192,left,0.069990542,None,demo,001,2025-02-03_13h56.33.003,contrast_sensitivity,2024.2.4,None,2025-02-03 13h56.51.908240 -0500
0.01,1,2,179,59,2,left,0.22013999905902892,None,2,59,179,14,236.39976075000595,,,,236.39076225005556,236.98426262498833,237.2106990000466,left,0.22013999905902892,None,demo,001,2025-02-03_13h56.33.003,contrast_sensitivity,2024.2.4,None,2025-02-03 13h56.51.908240 -0500
0.1,1,1,180,0,3,right,0.13161683292128146,None,3,0,180,4,237.21703520801384,,,,237.21210391598288,237.8187715,237.95351083297282,right,0.13161683292128146,None,demo,001,2025-02-03_13h56.33.003,contrast_sensitivity,2024.2.4,None,2025-02-03 13h56.51.908240 -0500
0.1,1,2,181,1,3,right,0.043670625,None,3,1,181,16,237.96201995806769,,,,237.95591570797842,238.55073245801032,238.60406016604975,right,0.043670625,None,demo,001,2025-02-03_13h56.33.003,contrast_sensitivity,2024.2.4,None,2025-02-03 13h56.51.908240 -0500
0.0001,1,16,182,2,3,right,0.26927474909462035,None,3,2,182,49,238.6124933330575,,,,238.60614862502553,239.20009525003843,239.47101962508168,right,0.26927474909462035,None,demo,001,2025-02-03_13h56.33.003,contrast_sensitivity,2024.2.4,None,2025-02-03 13h56.51.908240 -0500
0.0001,-1,4,183,3,3,right,0.374739958,None,3,3,183,31,239.4829077500617,,,,239.47265666606836,240.06659587507602,240.4527146660257,right,0.374739958,None,demo,001,2025-02-03_13h56.33.003,contrast_sensitivity,2024.2.4,None,2025-02-03 13h56.51.908240 -0500
0.05,-1,4,184,4,3,left,0.32366004190407693,None,3,4,184,33,240.46174175001215,,,,240.4551734579727,241.05068445799407,241.38670095801353,left,0.32366004190407693,None,demo,001,2025-02-03_13h56.33.003,contrast_sensitivity,2024.2.4,None,2025-02-03 13h56.51.908240 -0500
0.1,-1,1,185,5,3,left,0.20523062406573445,None,3,5,185,10,241.3949320410611,,,,241.38920291606337,241.9840862500714,242.20364358299412,left,0.20523062406573445,None,demo,001,2025-02-03_13h56.33.003,contrast_sensitivity,2024.2.4,None,2025-02-03 13h56.51.908240 -0500
0.05,-1,2,186,6,3,left,0.02442675,None,3,6,186,21,242.21096979104914,,,,242.20601199998055,242.8010369159747,242.83601241605356,left,0.02442675,None,demo,001,2025-02-03_13h56.33.003,contrast_sensitivity,2024.2.4,None,2025-02-03 13h56.51.908240 -0500
1,-1,4,187,7,3,left,0.022138750064186752,None,3,7,187,35,242.84429333300795,,,,242.83834374998696,243.43311316601466,243.4684138330631,left,0.022138750064186752,None,demo,001,2025-02-03_13h56.33.003,contrast_sensitivity,2024.2.4,None,2025-02-03 13h56.51.908240 -0500
1e-08,-1,4,188,8,3,left,0.20483220799360424,None,3,8,188,30,243.47390191606246,,,,243.4699892080389,244.05560058297124,244.26987237506546,left,0.20483220799360424,None,demo,001,2025-02-03_13h56.33.003,contrast_sensitivity,2024.2.4,None,2025-02-03 13h56.51.908240 -0500
1,1,2,189,9,3,right,0.025862417,None,3,9,189,17,244.27833041606937,,,,244.27197487500962,244.86749299999792,244.90347045799717,right,0.025862417,None,demo,001,2025-02-03_13h56.33.003,contrast_sensitivity,2024.2.4,None,2025-02-03 13h56.51.908240 -0500
1e-08,-1,8,190,10,3,left,0.3394851670600474,None,3,10,190,42,244.910653,,,,244.9057800830342,245.50070237508044,245.85230587504338,left,0.3394851670600474,None,demo,001,2025-02-03_13h56.33.003,contrast_sensitivity,2024.2.4,None,2025-02-03 13h56.51.908240 -0500
0.0001,1,8,191,11,3,right,0.42426833300851285,None,3,11,191,37,245.86048720800318,,,,245.8544627079973,246.44991462503094,246.88501120801084,right,0.42426833300851285,None,demo,001,2025-02-03_13h56.33.003,contrast_sensitivity,2024.2.4,None,2025-02-03 13h56.51.908240 -0500
0.01,1,4,192,12,3,left,0.5515257080551237,None,3,12,192,26,246.89023354102392,,,,246.88647079106886,247.471685,248.03709083306603,left,0.5515257080551237,None,demo,001,2025-02-03_13h56.33.003,contrast_sensitivity,2024.2.4,None,2025-02-03 13h56.51.908240 -0500
1e-08,1,1,193,13,3,left,0.14733079099096358,None,3,13,193,0,248.0450621250784,,,,248.03931483300403,248.63397758302744,248.78697450004984,left,0.14733079099096358,None,demo,001,2025-02-03_13h56.33.003,contrast_sensitivity,2024.2.4,None,2025-02-03 13h56.51.908240 -0500
0.05,-1,1,194,14,3,left,0.14926933299284428,None,3,14,194,9,248.7957327910699,,,,248.78941679105628,249.38386975007597,249.53449250000995,left,0.14926933299284428,None,demo,001,2025-02-03_13h56.33.003,contrast_sensitivity,2024.2.4,None,2025-02-03 13h56.51.908240 -0500
0.01,-1,2,195,15,3,left,0.068922541,None,3,15,195,20,249.54007687501144,,,,249.53587945806794,250.13419379107654,250.20747512497474,left,0.068922541,None,demo,001,2025-02-03_13h56.33.003,contrast_sensitivity,2024.2.4,None,2025-02-03 13h56.51.908240 -0500
0.01,1,8,196,16,3,left,0.18077408301178366,None,3,16,196,38,250.2170367910294,,,,250.20997195807286,250.80534225003794,250.98996979102958,left,0.18077408301178366,None,demo,001,2025-02-03_13h56.33.003,contrast_sensitivity,2024.2.4,None,2025-02-03 13h56.51.908240 -0500
0.01,1,2,197,17,3,left,0.3884577080607414,None,3,17,197,14,251.00050054106396,,,,250.99206991598476,251.5886657909723,251.98605250008404,left,0.3884577080607414,None,demo,001,2025-02-03_13h56.33.003,contrast_sensitivity,2024.2.4,None,2025-02-03 13h56.51.908240 -0500
1,1,8,198,18,3,right,0.2969627489801496,None,3,18,198,41,251.99538654100616,,,,251.98889866599347,252.5841077,252.88691454101354,right,0.2969627489801496,None,demo,001,2025-02-03_13h56.33.003,contrast_sensitivity,2024.2.4,None,2025-02-03 13h56.51.908240 -0500
0.0001,-1,1,199,19,3,left,0.288282499,None,3,19,199,7,252.89359370805323,,,,252.88860975007992,253.48377200006507,253.7859086659737,left,0.288282499,None,demo,001,2025-02-03_13h56.33.003,contrast_sensitivity,2024.2.4,None,2025-02-03 13h56.51.908240 -0500
0.01,-1,16,200,20,3,left,0.3412120830034837,None,3,20,200,56,253.79464750003535,,,,253.78834774997085,254.38375804107636,254.73486187506933,left,0.3412120830034837,None,demo,001,2025-02-03_13h56.33.003,contrast_sensitivity,2024.2.4,None,2025-02-03 13h56.51.908240 -0500
0.01,1,16,201,21,3,left,0.3893885830184445,None,3,21,201,50,254.74001425004099,,,,254.73614612501115,255.33363570808433,255.73607987503055,left,0.3893885830184445,None,demo,001,2025-02-03_13h56.33.003,contrast_sensitivity,2024.2.4,None,2025-02-03 13h56.51.908240 -0500
1e-08,-1,2,202,22,3,left,0.6077372080180794,None,3,22,202,18,255.75164195802063,,,,255.7372802910395,256.3332654580008,256.9536372500006,left,0.6077372080180794,None,demo,001,2025-02-03_13h56.33.003,contrast_sensitivity,2024.2.4,None,2025-02-03 13h56.51.908240 -0500
0.1,1,16,203,23,3,right,0.3242219159146771,None,3,23,203,52,256.96793033299036,,,,256.95581808302086,257.5497463750653,257.8861145830015,right,0.3242219159146771,None,demo,001,2025-02-03_13h56.33.003,contrast_sensitivity,2024.2.4,None,2025-02-03 13h56.51.908240 -0500
0.0001,1,2,204,24,3,left,0.31313324999064207,None,3,24,204,13,257.8948856659699,,,,257.8880661249859,258.4848379,258.8067386660259,left,0.31313324999064207,None,demo,001,2025-02-03_13h56.33.003,contrast_sensitivity,2024.2.4,None,2025-02-03 13h56.51.908240 -0500
0.01,-1,8,205,25,3,left,0.22568283299915493,None,3,25,205,44,258.8173337910557,,,,258.80810925003607,259.4042253330117,259.6351284580305,left,0.22568283299915493,None,demo,001,2025-02-03_13h56.33.003,contrast_sensitivity,2024.2.4,None,2025-02-03 13h56.51.908240 -0500
1,1,1,206,26,3,right,0.082483833,None,3,26,206,5,259.6414164160378,,,,259.63674570806324,260.2344332910143,260.32021466607694,right,0.082483833,None,demo,001,2025-02-03_13h56.33.003,contrast_sensitivity,2024.2.4,None,2025-02-03 13h56.51.908240 -0500
0.1,1,8,207,27,3,right,0.1332301249494776,None,3,27,207,40,260.32734208297916,,,,260.3226821660064,260.9176020830637,261.0529857079964,right,0.1332301249494776,None,demo,001,2025-02-03_13h56.33.003,contrast_sensitivity,2024.2.4,None,2025-02-03 13h56.51.908240 -0500
0.05,-1,16,208,28,3,left,0.17405416595283896,None,3,28,208,57,261.06034433306195,,,,261.05535591603257,261.6497746660607,261.8351166660432,left,0.17405416595283896,None,demo,001,2025-02-03_13h56.33.003,contrast_sensitivity,2024.2.4,None,2025-02-03 13h56.51.908240 -0500
1,-1,16,209,29,3,left,0.025623957975767553,None,3,29,209,59,261.8418082080316,,,,261.8369203750044,262.43318008305505,262.4686767500825,left,0.025623957975767553,None,demo,001,2025-02-03_13h56.33.003,contrast_sensitivity,2024.2.4,None,2025-02-03 13h56.51.908240 -0500
0.1,-1,16,210,30,3,left,0.11852037499193102,None,3,30,210,58,262.4750011659926,,,,262.4704268750502,263.07134004100226,263.2027267910307,left,0.11852037499193102,None,demo,001,2025-02-03_13h56.33.003,contrast_sensitivity,2024.2.4,None,2025-02-03 13h56.51.908240 -0500
1,1,4,211,31,3,right,0.074345041,None,3,31,211,29,263.2114409999922,,,,263.20503637497313,263.80152425006963,263.88692833296955,right,0.074345041,None,demo,001,2025-02-03_13h56.33.003,contrast_sensitivity,2024.2.4,None,2025-02-03 13h56.51.908240 -0500
1,-1,1,212,32,3,left,0.11864041606895626,None,3,32,212,11,263.90066937496886,,,,263.8890739160124,264.4841175409965,264.6067965410184,left,0.11864041606895626,None,demo,001,2025-02-03_13h56.33.003,contrast_sensitivity,2024.2.4,None,2025-02-03 13h56.51.908240 -0500
1e-08,1,8,213,33,3,left,0.20096608297899365,None,3,33,213,36,264.617173,,,,264.6088922909694,265.2088059580419,265.41927458299324,left,0.20096608297899365,None,demo,001,2025-02-03_13h56.33.003,contrast_sensitivity,2024.2.4,None,2025-02-03 13h56.51.908240 -0500
1e-08,-1,16,214,34,3,left,0.5903852500487119,None,3,34,214,54,265.4339681660058,,,,265.4214072910836,266.0173491250025,266.61991541599855,left,0.5903852500487119,None,demo,001,2025-02-03_13h56.33.003,contrast_sensitivity,2024.2.4,None,2025-02-03 13h56.51.908240 -0500
0.01,-1,1,215,35,3,left,0.24291683291085064,None,3,35,215,8,266.6281592079904,,,,266.6218809579732,267.2177596660331,267.4706177080516,left,0.24291683291085064,None,demo,001,2025-02-03_13h56.33.003,contrast_sensitivity,2024.2.4,None,2025-02-03 13h56.51.908240 -0500
0.0001,-1,16,216,36,3,right,0.5922067919746041,None,3,36,216,55,267.4839416249888,,,,267.4727710830048,268.08449679100886,268.6861563330749,right,0.5922067919746041,None,demo,001,2025-02-03_13h56.33.003,contrast_sensitivity,2024.2.4,None,2025-02-03 13h56.51.908240 -0500
1,-1,2,217,37,3,left,0.34218983293976635,None,3,37,217,23,268.7008954579942,,,,268.6883745830273,269.3004263,269.6523369579809,left,0.34218983293976635,None,demo,001,2025-02-03_13h56.33.003,contrast_sensitivity,2024.2.4,None,2025-02-03 13h56.51.908240 -0500
0.05,1,4,218,38,3,right,0.2890211659250781,None,3,38,218,27,269.65821100003086,,,,269.6541056249989,270.2496210000245,270.5531612080522,right,0.2890211659250781,None,demo,001,2025-02-03_13h56.33.003,contrast_sensitivity,2024.2.4,None,2025-02-03 13h56.51.908240 -0500
1,-1,8,219,39,3,left,0.1735478329937905,None,3,39,219,47,270.5614516660571,,,,270.5552500410704,271.15105125005357,271.3364448330831,left,0.1735478329937905,None,demo,001,2025-02-03_13h56.33.003,contrast_sensitivity,2024.2.4,None,2025-02-03 13h56.51.908240 -0500
0.01,-1,4,220,40,3,left,0.2480644159950316,None,3,40,220,32,271.3454436659813,,,,271.3386212909827,271.93361441604793,272.18616691604257,left,0.2480644159950316,None,demo,001,2025-02-03_13h56.33.003,contrast_sensitivity,2024.2.4,None,2025-02-03 13h56.51.908240 -0500
0.0001,1,4,221,41,3,right,0.22804183303378522,None,3,41,221,25,272.1936943749897,,,,272.1884823750006,272.80130200006533,273.0362101250794,right,0.22804183303378522,None,demo,001,2025-02-03_13h56.33.003,contrast_sensitivity,2024.2.4,None,2025-02-03 13h56.51.908240 -0500
1e-08,-1,1,222,42,3,left,0.9059108330402523,None,3,42,222,6,273.04405575001147,,,,273.0384496659972,273.6336751660565,274.55342950008344,left,0.9059108330402523,None,demo,001,2025-02-03_13h56.33.003,contrast_sensitivity,2024.2.4,None,2025-02-03 13h56.51.908240 -0500
0.05,1,2,223,43,3,right,0.060940457973629236,None,3,43,223,15,274.5616830000654,,,,274.55560958303977,275.1507091,275.21971458301414,right,0.060940457973629236,None,demo,001,2025-02-03_13h56.33.003,contrast_sensitivity,2024.2.4,None,2025-02-03 13h56.51.908240 -0500
0.01,1,1,224,44,3,left,0.3339526249328628,None,3,44,224,2,275.2274662910495,,,,275.22197295806836,275.8174988750834,276.1565534580732,left,0.3339526249328628,None,demo,001,2025-02-03_13h56.33.003,contrast_sensitivity,2024.2.4,None,2025-02-03 13h56.51.908240 -0500
0.1,-1,4,225,45,3,left,0.12666645797435194,None,3,45,225,34,276.1672863,,,,276.15846879105084,276.7538227500627,276.8852108330466,left,0.12666645797435194,None,demo,001,2025-02-03_13h56.33.003,contrast_sensitivity,2024.2.4,None,2025-02-03 13h56.51.908240 -0500
1e-08,1,4,226,46,3,left,0.1854193330509588,None,3,46,226,24,276.89076395798475,,,,276.88686737499665,277.4830238750437,277.67118395806756,left,0.1854193330509588,None,demo,001,2025-02-03_13h56.33.003,contrast_sensitivity,2024.2.4,None,2025-02-03 13h56.51.908240 -0500
0.1,-1,8,227,47,3,left,0.030158457928337157,None,3,47,227,46,277.6829514160054,,,,277.67261512507685,278.267324,278.3032860830426,left,0.030158457928337157,None,demo,001,2025-02-03_13h56.33.003,contrast_sensitivity,2024.2.4,None,2025-02-03 13h56.51.908240 -0500
0.05,1,8,228,48,3,right,0.2572026669513434,None,3,48,228,39,278.31202933297027,,,,278.30538000003435,278.91733912506606,279.18707620806526,right,0.2572026669513434,None,demo,001,2025-02-03_13h56.33.003,contrast_sensitivity,2024.2.4,None,2025-02-03 13h56.51.908240 -0500
0.05,1,1,229,49,3,right,0.13253266690298915,None,3,49,229,3,279.19560645800084,,,,279.18898529105354,279.78390775003936,279.91967212501913,right,0.13253266690298915,None,demo,001,2025-02-03_13h56.33.003,contrast_sensitivity,2024.2.4,None,2025-02-03 13h56.51.908240 -0500
0.1,1,4,230,50,3,right,0.070892958,None,3,50,230,28,279.92876504105516,,,,279.9218562080059,280.5174843330169,280.59137504105456,right,0.070892958,None,demo,001,2025-02-03_13h56.33.003,contrast_sensitivity,2024.2.4,None,2025-02-03 13h56.51.908240 -0500
1e-08,1,16,231,51,3,right,0.5375710829393938,None,3,51,231,48,280.5994926249841,,,,280.5932370000519,281.1889620410511,281.73662812507246,right,0.5375710829393938,None,demo,001,2025-02-03_13h56.33.003,contrast_sensitivity,2024.2.4,None,2025-02-03 13h56.51.908240 -0500
0.0001,-1,2,232,52,3,left,0.20629662403371185,None,3,52,232,19,281.7453315000748,,,,281.7388106660219,282.3340489580296,282.55285595799796,left,0.20629662403371185,None,demo,001,2025-02-03_13h56.33.003,contrast_sensitivity,2024.2.4,None,2025-02-03 13h56.51.908240 -0500
0.05,-1,8,233,53,3,left,0.1305621659848839,None,3,53,233,45,282.5615730830468,,,,282.5550272500841,283.1517590410076,283.2862595410552,left,0.1305621659848839,None,demo,001,2025-02-03_13h56.33.003,contrast_sensitivity,2024.2.4,None,2025-02-03 13h56.51.908240 -0500
0.1,-1,2,234,54,3,left,0.17926129105035216,None,3,54,234,22,283.2945526660187,,,,283.28828608302865,283.8832418330712,284.0700071660103,left,0.17926129105035216,None,demo,001,2025-02-03_13h56.33.003,contrast_sensitivity,2024.2.4,None,2025-02-03 13h56.51.908240 -0500
1,1,16,235,55,3,right,0.12184170796535909,None,3,55,235,53,284.0789755830774,,,,284.0722468,284.66642708308063,284.8013204160379,right,0.12184170796535909,None,demo,001,2025-02-03_13h56.33.003,contrast_sensitivity,2024.2.4,None,2025-02-03 13h56.51.908240 -0500
1e-08,1,2,236,56,3,right,0.1255664989585057,None,3,56,236,12,284.8081601250451,,,,284.80325850006193,285.3997235830175,285.53609204106033,right,0.1255664989585057,None,demo,001,2025-02-03_13h56.33.003,contrast_sensitivity,2024.2.4,None,2025-02-03 13h56.51.908240 -0500
0.0001,1,1,237,57,3,left,0.24516595795284957,None,3,57,237,1,285.54346512502525,,,,285.5379493330838,286.1342123330105,286.38650074996985,left,0.24516595795284957,None,demo,001,2025-02-03_13h56.33.003,contrast_sensitivity,2024.2.4,None,2025-02-03 13h56.51.908240 -0500
0.05,1,16,238,58,3,right,0.26910208305343986,None,3,58,238,51,286.39502841606736,,,,286.38858250004705,286.98411129100714,287.2568852080731,right,0.26910208305343986,None,demo,001,2025-02-03_13h56.33.003,contrast_sensitivity,2024.2.4,None,2025-02-03 13h56.51.908240 -0500
0.0001,-1,8,239,59,3,left,0.2883641249500215,None,3,59,239,43,287.2671964580659,,,,287.2588981660083,287.85587254108395,288.15312241599895,left,0.2883641249500215,None,demo,001,2025-02-03_13h56.33.003,contrast_sensitivity,2024.2.4,None,2025-02-03 13h56.51.908240 -0500
0.05,1,1,240,0,4,left,0.9141946251038462,None,4,0,240,3,288.1596532079857,,,,288.15514716599137,288.7510604580166,289.66937454103027,left,0.9141946251038462,None,demo,001,2025-02-03_13h56.33.003,contrast_sensitivity,2024.2.4,None,2025-02-03 13h56.51.908240 -0500
0.05,-1,2,241,1,4,left,0.6656486249994487,None,4,1,241,21,289.6776712910505,,,,289.6714825000381,290.2675190829905,290.93622466607485,left,0.6656486249994487,None,demo,001,2025-02-03_13h56.33.003,contrast_sensitivity,2024.2.4,None,2025-02-03 13h56.51.908240 -0500
1e-08,1,8,242,2,4,left,0.9204993749735877,None,4,2,242,36,290.9440800830489,,,,290.9386249160161,291.53364295803476,292.4680163,left,0.9204993749735877,None,demo,001,2025-02-03_13h56.33.003,contrast_sensitivity,2024.2.4,None,2025-02-03 13h56.51.908240 -0500
1e-08,-1,2,243,3,4,left,0.5150980410398915,None,4,3,243,18,292.47399666602723,,,,292.4695418330375,293.0673641250469,293.58520191605203,left,0.5150980410398915,None,demo,001,2025-02-03_13h56.33.003,contrast_sensitivity,2024.2.4,None,2025-02-03 13h56.51.908240 -0500
0.05,1,8,244,4,4,right,0.4670322920428589,None,4,4,244,39,293.59200070798397,,,,293.5865986250574,294.18398808303755,294.65439012506977,right,0.4670322920428589,None,demo,001,2025-02-03_13h56.33.003,contrast_sensitivity,2024.2.4,None,2025-02-03 13h56.51.908240 -0500
1e-08,-1,4,245,5,4,left,0.3552660410059616,None,4,5,245,30,294.66640920797363,,,,294.6557764579775,295.25074087502435,295.6197300410131,left,0.3552660410059616,None,demo,001,2025-02-03_13h56.33.003,contrast_sensitivity,2024.2.4,None,2025-02-03 13h56.51.908240 -0500
0.1,-1,4,246,6,4,left,0.3565611660014838,None,4,6,246,34,295.6280680000782,,,,295.62183808302507,296.2344487500377,296.6027014160063,left,0.3565611660014838,None,demo,001,2025-02-03_13h56.33.003,contrast_sensitivity,2024.2.4,None,2025-02-03 13h56.51.908240 -0500
0.0001,1,16,247,7,4,left,0.7340938739944249,None,4,7,247,49,296.6095452910522,,,,296.60503116599284,297.2178556660656,297.9558147500502,left,0.7340938739944249,None,demo,001,2025-02-03_13h56.33.003,contrast_sensitivity,2024.2.4,None,2025-02-03 13h56.51.908240 -0500
0.0001,1,1,248,8,4,right,0.5138392910594121,None,4,8,248,1,297.9664544580737,,,,297.95736337499693,298.55516966606956,299.0736304160673,right,0.5138392910594121,None,demo,001,2025-02-03_13h56.33.003,contrast_sensitivity,2024.2.4,None,2025-02-03 13h56.51.908240 -0500
1,-1,4,249,9,4,left,0.45110370800830424,None,4,9,249,35,299.0837262910791,,,,299.0763095000293,299.66980279097334,300.13457850005943,left,0.45110370800830424,None,demo,001,2025-02-03_13h56.33.003,contrast_sensitivity,2024.2.4,None,2025-02-03 13h56.51.908240 -0500
0.01,1,1,250,10,4,left,0.4761008749483153,None,4,10,250,2,300.1408414160833,,,,300.1361782080494,300.7339624579763,301.2197790830396,left,0.4761008749483153,None,demo,001,2025-02-03_13h56.33.003,contrast_sensitivity,2024.2.4,None,2025-02-03 13h56.51.908240 -0500
0.01,-1,2,251,11,4,left,0.37764858291484416,None,4,11,251,20,301.2278097909875,,,,301.22221454104874,301.8173566660844,302.2029209160246,left,0.37764858291484416,None,demo,001,2025-02-03_13h56.33.003,contrast_sensitivity,2024.2.4,None,2025-02-03 13h56.51.908240 -0500
0.1,-1,2,252,12,4,left,0.3087955410592258,None,4,12,252,22,302.21145545807667,,,,302.2054186250316,302.80522429104894,303.1191082079895,left,0.3087955410592258,None,demo,001,2025-02-03_13h56.33.003,contrast_sensitivity,2024.2.4,None,2025-02-03 13h56.51.908240 -0500
1,-1,1,253,13,4,left,0.24625383305829018,None,4,13,253,11,303.12850716605317,,,,303.12139716604725,303.71766091603786,303.9700407080818,left,0.24625383305829018,None,demo,001,2025-02-03_13h56.33.003,contrast_sensitivity,2024.2.4,None,2025-02-03 13h56.51.908240 -0500
0.0001,-1,8,254,14,4,left,0.22665179101750255,None,4,14,254,43,303.97771908307914,,,,303.9722707910696,304.5673274160363,304.8031460000202,left,0.22665179101750255,None,demo,001,2025-02-03_13h56.33.003,contrast_sensitivity,2024.2.4,None,2025-02-03 13h56.51.908240 -0500
0.01,1,8,255,15,4,left,0.4029291240731254,None,4,15,255,38,304.8110619999934,,,,304.8051872,305.40083962504286,305.80686329107266,left,0.4029291240731254,None,demo,001,2025-02-03_13h56.33.003,contrast_sensitivity,2024.2.4,None,2025-02-03 13h56.51.908240 -0500
0.01,1,2,256,16,4,right,0.3728209160035476,None,4,16,256,14,305.8170638750307,,,,305.80923300003633,306.40514395805076,306.78650129097514,right,0.3728209160035476,None,demo,001,2025-02-03_13h56.33.003,contrast_sensitivity,2024.2.4,None,2025-02-03 13h56.51.908240 -0500
0.01,-1,16,257,17,4,left,0.4656440831022337,None,4,17,257,56,306.7942306660116,,,,306.78886287508067,307.38308329100255,307.8531071660109,left,0.4656440831022337,None,demo,001,2025-02-03_13h56.33.003,contrast_sensitivity,2024.2.4,None,2025-02-03 13h56.51.908240 -0500
0.1,-1,16,258,18,4,left,0.25912979105487466,None,4,18,258,58,307.8591445409693,,,,307.85460570803843,308.46759145800024,308.7364609580254,left,0.25912979105487466,None,demo,001,2025-02-03_13h56.33.003,contrast_sensitivity,2024.2.4,None,2025-02-03 13h56.51.908240 -0500
0.0001,1,4,259,19,4,right,0.34590141603257507,None,4,19,259,25,308.7452345000347,,,,308.73844487499446,309.33878104097676,309.68918237497564,right,0.34590141603257507,None,demo,001,2025-02-03_13h56.33.003,contrast_sensitivity,2024.2.4,None,2025-02-03 13h56.51.908240 -0500
0.0001,1,8,260,20,4,right,0.2463205000385642,None,4,20,260,37,309.70032362500206,,,,309.6904394,310.2883269999875,310.54128412506543,right,0.2463205000385642,None,demo,001,2025-02-03_13h56.33.003,contrast_sensitivity,2024.2.4,None,2025-02-03 13h56.51.908240 -0500
0.05,1,2,261,21,4,right,0.33480149903334677,None,4,21,261,15,310.55030979099683,,,,310.54320737498347,311.132881,311.47340512496885,right,0.33480149903334677,None,demo,001,2025-02-03_13h56.33.003,contrast_sensitivity,2024.2.4,None,2025-02-03 13h56.51.908240 -0500
0.05,1,4,262,22,4,right,0.163020083,None,4,22,262,27,311.4836859999923,,,,311.47554420807865,312.0716567080235,312.24392845807597,right,0.163020083,None,demo,001,2025-02-03_13h56.33.003,contrast_sensitivity,2024.2.4,None,2025-02-03 13h56.51.908240 -0500
0.1,-1,1,263,23,4,left,0.1138341249898076,None,4,23,263,10,312.24964758299757,,,,312.24567737500183,312.83684337500017,312.9537518330617,left,0.1138341249898076,None,demo,001,2025-02-03_13h56.33.003,contrast_sensitivity,2024.2.4,None,2025-02-03 13h56.51.908240 -0500
0.0001,-1,16,264,24,4,left,0.16877683298662305,None,4,24,264,55,312.9671235830756,,,,312.9560634159716,313.5498671249952,313.7204596250085,left,0.16877683298662305,None,demo,001,2025-02-03_13h56.33.003,contrast_sensitivity,2024.2.4,None,2025-02-03 13h56.51.908240 -0500
1e-08,-1,8,265,25,4,left,0.4999259989708662,None,4,25,265,42,313.73301654099487,,,,313.7216107080458,314.31963166606147,314.82165875006467,left,0.4999259989708662,None,demo,001,2025-02-03_13h56.33.003,contrast_sensitivity,2024.2.4,None,2025-02-03 13h56.51.908240 -0500
0.01,1,4,266,26,4,right,0.2965288331033662,None,4,26,266,26,314.8331328750355,,,,314.8231801,315.4190062910784,315.7176546660485,right,0.2965288331033662,None,demo,001,2025-02-03_13h56.33.003,contrast_sensitivity,2024.2.4,None,2025-02-03 13h56.51.908240 -0500
0.0001,-1,4,267,27,4,right,0.3561994159827009,None,4,27,267,31,315.7237711660564,,,,315.71894749999046,316.3053656660486,316.6700118330773,right,0.3561994159827009,None,demo,001,2025-02-03_13h56.33.003,contrast_sensitivity,2024.2.4,None,2025-02-03 13h56.51.908240 -0500
1,-1,2,268,28,4,left,0.2642633750801906,None,4,28,268,23,316.6787726250477,,,,316.67237595806364,317.2672480000183,317.53533920797054,left,0.2642633750801906,None,demo,001,2025-02-03_13h56.33.003,contrast_sensitivity,2024.2.4,None,2025-02-03 13h56.51.908240 -0500
0.1,1,4,269,29,4,right,0.13916116603650153,None,4,29,269,28,317.54233141604345,,,,317.53761379106436,318.13331816601567,318.2866703750333,right,0.13916116603650153,None,demo,001,2025-02-03_13h56.33.003,contrast_sensitivity,2024.2.4,None,2025-02-03 13h56.51.908240 -0500
1,1,16,270,30,4,right,0.095469166,None,4,30,270,53,318.29661000007764,,,,318.2892117080046,318.8840142079862,318.98588983307127,right,0.095469166,None,demo,001,2025-02-03_13h56.33.003,contrast_sensitivity,2024.2.4,None,2025-02-03 13h56.51.908240 -0500
1e-08,-1,1,271,31,4,right,0.28480037406552583,None,4,31,271,6,318.9921152080642,,,,318.9873913329793,319.6016072500497,319.9034087500768,right,0.28480037406552583,None,demo,001,2025-02-03_13h56.33.003,contrast_sensitivity,2024.2.4,None,2025-02-03 13h56.51.908240 -0500
0.1,1,2,272,32,4,right,0.11595970799680799,None,4,32,272,16,319.9173315410735,,,,319.9055181250442,320.5005494580837,320.6203701250488,right,0.11595970799680799,None,demo,001,2025-02-03_13h56.33.003,contrast_sensitivity,2024.2.4,None,2025-02-03 13h56.51.908240 -0500
1e-08,1,4,273,33,4,left,0.2430212500039488,None,4,33,273,24,320.62875862501096,,,,320.6222021250287,321.2176070000278,321.46887829108164,left,0.2430212500039488,None,demo,001,2025-02-03_13h56.33.003,contrast_sensitivity,2024.2.4,None,2025-02-03 13h56.51.908240 -0500
0.01,-1,1,274,34,4,left,0.18509312404785305,None,4,34,274,8,321.47771937504876,,,,321.4711467080051,322.06728449999355,322.2561423750594,left,0.18509312404785305,None,demo,001,2025-02-03_13h56.33.003,contrast_sensitivity,2024.2.4,None,2025-02-03 13h56.51.908240 -0500
0.1,1,16,275,35,4,right,0.19424287497531623,None,4,35,275,52,322.26699908298906,,,,322.25870087498333,322.85311191598885,323.0510274580447,right,0.19424287497531623,None,demo,001,2025-02-03_13h56.33.003,contrast_sensitivity,2024.2.4,None,2025-02-03 13h56.51.908240 -0500
0.1,-1,8,276,36,4,left,0.14321425009984523,None,4,36,276,46,323.05644583306275,,,,323.0522233750671,323.6511481250636,323.8027174579911,left,0.14321425009984523,None,demo,001,2025-02-03_13h56.33.003,contrast_sensitivity,2024.2.4,None,2025-02-03 13h56.51.908240 -0500
1e-08,1,1,277,37,4,left,0.4683815831085667,None,4,37,277,0,323.8175877080066,,,,323.8056180829881,324.4009400830837,324.88641491602175,left,0.4683815831085667,None,demo,001,2025-02-03_13h56.33.003,contrast_sensitivity,2024.2.4,None,2025-02-03 13h56.51.908240 -0500
0.01,-1,4,278,38,4,right,0.27518329105805606,None,4,38,278,32,324.9008042910136,,,,324.88837366597727,325.4842342080083,325.77068216598127,right,0.27518329105805606,None,demo,001,2025-02-03_13h56.33.003,contrast_sensitivity,2024.2.4,None,2025-02-03 13h56.51.908240 -0500
0.0001,-1,1,279,39,4,left,0.299715583,None,4,39,279,7,325.7841185410507,,,,325.77281295799185,326.3845354580553,326.6859664580552,left,0.299715583,None,demo,001,2025-02-03_13h56.33.003,contrast_sensitivity,2024.2.4,None,2025-02-03 13h56.51.908240 -0500
1,1,2,280,40,4,right,0.017863666987977922,None,4,40,280,17,326.6948651659768,,,,326.6881385,327.2843983,327.3062324579805,right,0.017863666987977922,None,demo,001,2025-02-03_13h56.33.003,contrast_sensitivity,2024.2.4,None,2025-02-03 13h56.51.908240 -0500
0.1,1,1,281,41,4,right,0.22966737498063594,None,4,41,281,4,327.31697133299895,,,,327.3086002910277,327.90062245808076,328.1362939160317,right,0.22966737498063594,None,demo,001,2025-02-03_13h56.33.003,contrast_sensitivity,2024.2.4,None,2025-02-03 13h56.51.908240 -0500
1e-08,-1,16,282,42,4,left,0.6809201668947935,None,4,42,282,54,328.14551083301194,,,,328.13887058303226,328.7512619580375,329.4376330410596,left,0.6809201668947935,None,demo,001,2025-02-03_13h56.33.003,contrast_sensitivity,2024.2.4,None,2025-02-03 13h56.51.908240 -0500
1,1,1,283,43,4,right,0.03344975,None,4,43,283,5,329.4507529999828,,,,329.4398662910098,330.0367350829765,330.07265058299527,right,0.03344975,None,demo,001,2025-02-03_13h56.33.003,contrast_sensitivity,2024.2.4,None,2025-02-03 13h56.51.908240 -0500
1,1,8,284,44,4,right,0.14417179196607322,None,4,44,284,41,330.0830095000565,,,,330.07413208298385,330.6700269160792,330.8191702499753,right,0.14417179196607322,None,demo,001,2025-02-03_13h56.33.003,contrast_sensitivity,2024.2.4,None,2025-02-03 13h56.51.908240 -0500
0.1,1,8,285,45,4,right,0.12240499898325652,None,4,45,285,40,330.8254363749875,,,,330.82097920798697,331.4177721249871,331.5533840410644,right,0.12240499898325652,None,demo,001,2025-02-03_13h56.33.003,contrast_sensitivity,2024.2.4,None,2025-02-03 13h56.51.908240 -0500
1e-08,1,2,286,46,4,right,0.2434109579771757,None,4,46,286,12,331.5620573749766,,,,331.55593212507665,332.1507479160791,332.40257779101375,right,0.2434109579771757,None,demo,001,2025-02-03_13h56.33.003,contrast_sensitivity,2024.2.4,None,2025-02-03 13h56.51.908240 -0500
1,-1,8,287,47,4,left,0.25358608295209706,None,4,47,287,47,332.4110353749711,,,,332.4047462909948,333.0174785410054,333.2727465410717,left,0.25358608295209706,None,demo,001,2025-02-03_13h56.33.003,contrast_sensitivity,2024.2.4,None,2025-02-03 13h56.51.908240 -0500
0.05,1,16,288,48,4,right,0.3144135409966111,None,4,48,288,51,333.2836880830582,,,,333.27527512505185,333.87179808306973,334.19016858306713,right,0.3144135409966111,None,demo,001,2025-02-03_13h56.33.003,contrast_sensitivity,2024.2.4,None,2025-02-03 13h56.51.908240 -0500
1,-1,16,289,49,4,left,0.23400816600769758,None,4,49,289,59,334.2002966660075,,,,334.1923721249914,334.80103658302687,335.0442967910785,left,0.23400816600769758,None,demo,001,2025-02-03_13h56.33.003,contrast_sensitivity,2024.2.4,None,2025-02-03 13h56.51.908240 -0500
0.05,-1,16,290,50,4,left,0.16763037396594882,None,4,50,290,57,335.04952012503054,,,,335.04569708299823,335.65144979103934,335.82389870798215,left,0.16763037396594882,None,demo,001,2025-02-03_13h56.33.003,contrast_sensitivity,2024.2.4,None,2025-02-03 13h56.51.908240 -0500
0.01,-1,8,291,51,4,left,0.14460799901280552,None,4,51,291,44,335.8336741660023,,,,335.82623025006615,336.4194771660259,336.57245854102075,left,0.14460799901280552,None,demo,001,2025-02-03_13h56.33.003,contrast_sensitivity,2024.2.4,None,2025-02-03 13h56.51.908240 -0500
0.0001,1,2,292,52,4,left,0.3457244159653783,None,4,52,292,13,336.5832862909883,,,,336.57415045797825,337.16735533298925,337.51961650000885,left,0.3457244159653783,None,demo,001,2025-02-03_13h56.33.003,contrast_sensitivity,2024.2.4,None,2025-02-03 13h56.51.908240 -0500
0.05,-1,4,293,53,4,left,0.17258583288639784,None,4,53,293,33,337.53378437506035,,,,337.52194837504067,338.1163984159939,338.3015795410611,left,0.17258583288639784,None,demo,001,2025-02-03_13h56.33.003,contrast_sensitivity,2024.2.4,None,2025-02-03 13h56.51.908240 -0500
0.01,1,16,294,54,4,right,0.19968491606414318,None,4,54,294,50,338.30710979097057,,,,338.30314783297945,338.90138887497596,339.1078076660633,right,0.19968491606414318,None,demo,001,2025-02-03_13h56.33.003,contrast_sensitivity,2024.2.4,None,2025-02-03 13h56.51.908240 -0500
1,1,4,295,55,4,right,0.072587499,None,4,55,295,29,339.11710462498013,,,,339.1100831,339.7004978330806,339.78647125000134,right,0.072587499,None,demo,001,2025-02-03_13h56.33.003,contrast_sensitivity,2024.2.4,None,2025-02-03 13h56.51.908240 -0500
1e-08,1,16,296,56,4,right,0.3230614160420373,None,4,56,296,48,339.7947306659771,,,,339.78880575008225,340.3839274160564,340.7197582910303,right,0.3230614160420373,None,demo,001,2025-02-03_13h56.33.003,contrast_sensitivity,2024.2.4,None,2025-02-03 13h56.51.908240 -0500
0.0001,-1,2,297,57,4,left,0.33751674904488027,None,4,57,297,19,340.72794291598257,,,,340.72213783301413,341.3173661660403,341.65654883300886,left,0.33751674904488027,None,demo,001,2025-02-03_13h56.33.003,contrast_sensitivity,2024.2.4,None,2025-02-03 13h56.51.908240 -0500
0.05,-1,8,298,58,4,left,0.3210145409684628,None,4,58,298,45,341.6672605830245,,,,341.6585327910725,342.25503679097164,342.58721483300906,left,0.3210145409684628,None,demo,001,2025-02-03_13h56.33.003,contrast_sensitivity,2024.2.4,None,2025-02-03 13h56.51.908240 -0500
0.05,-1,1,299,59,4,left,0.1005445410264656,None,4,59,299,9,342.6007451660698,,,,342.58950162504334,343.1843013330363,343.30413499998394,left,0.1005445410264656,None,demo,001,2025-02-03_13h56.33.003,contrast_sensitivity,2024.2.4,None,2025-02-03 13h56.51.908240 -0500
0.05,1,2,300,0,5,right,0.3125340410042554,None,5,0,300,15,343.31369937502313,,,,343.30710099998396,343.90074508299585,344.2199536249973,right,0.3125340410042554,None,demo,001,2025-02-03_13h56.33.003,contrast_sensitivity,2024.2.4,None,2025-02-03 13h56.51.908240 -0500
0.0001,-1,16,301,1,5,right,0.4313133329851553,None,5,1,301,55,344.23385924997274,,,,344.22222537500784,344.8345132910181,345.26806316606235,right,0.4313133329851553,None,demo,001,2025-02-03_13h56.33.003,contrast_sensitivity,2024.2.4,None,2025-02-03 13h56.51.908240 -0500
1e-08,1,8,302,2,5,left,0.47633391595445573,None,5,2,302,36,345.27408654103056,,,,345.2696360410191,345.86750437505543,346.35271983302664,left,0.47633391595445573,None,demo,001,2025-02-03_13h56.33.003,contrast_sensitivity,2024.2.4,None,2025-02-03 13h56.51.908240 -0500
1e-08,-1,16,303,3,5,left,0.20662174990866333,None,5,3,303,54,346.3684153750073,,,,346.35470320808236,346.9515473750653,347.1692901250208,left,0.20662174990866333,None,demo,001,2025-02-03_13h56.33.003,contrast_sensitivity,2024.2.4,None,2025-02-03 13h56.51.908240 -0500
1e-08,1,2,304,4,5,right,0.39817012508865446,None,5,4,304,12,347.1778481659712,,,,347.1712260830682,347.7675950829871,348.1694322080584,right,0.39817012508865446,None,demo,001,2025-02-03_13h56.33.003,contrast_sensitivity,2024.2.4,None,2025-02-03 13h56.51.908240 -0500
0.0001,-1,4,305,5,5,left,0.4522347080055624,None,5,5,305,31,348.1772300830344,,,,348.1717209160561,348.7675099580083,349.2212767499732,left,0.4522347080055624,None,demo,001,2025-02-03_13h56.33.003,contrast_sensitivity,2024.2.4,None,2025-02-03 13h56.51.908240 -0500
1,1,4,306,6,5,right,0.32775962504092604,None,5,6,306,29,349.2337092079688,,,,349.2226401,349.8220037079882,350.1529367499752,right,0.32775962504092604,None,demo,001,2025-02-03_13h56.33.003,contrast_sensitivity,2024.2.4,None,2025-02-03 13h56.51.908240 -0500
0.1,1,4,307,7,5,right,0.3568542500725016,None,5,7,307,28,350.16106254106853,,,,350.1550869580824,350.75087508303113,351.1201186659746,right,0.3568542500725016,None,demo,001,2025-02-03_13h56.33.003,contrast_sensitivity,2024.2.4,None,2025-02-03 13h56.51.908240 -0500
0.01,-1,8,308,8,5,left,0.22951645799912512,None,5,8,308,44,351.1288997910451,,,,351.1223504160298,351.71728037507273,351.9528109160019,left,0.22951645799912512,None,demo,001,2025-02-03_13h56.33.003,contrast_sensitivity,2024.2.4,None,2025-02-03 13h56.51.908240 -0500
0.05,-1,1,309,9,5,left,0.23007499903906137,None,5,9,309,9,351.9673643329879,,,,351.9548398749903,352.55062395799905,352.7902691659983,left,0.23007499903906137,None,demo,001,2025-02-03_13h56.33.003,contrast_sensitivity,2024.2.4,None,2025-02-03 13h56.51.908240 -0500
0.05,1,16,310,10,5,right,0.28292154206428677,None,5,10,310,51,352.80065975000616,,,,352.7925545410253,353.3867074160371,353.6719422499882,right,0.28292154206428677,None,demo,001,2025-02-03_13h56.33.003,contrast_sensitivity,2024.2.4,None,2025-02-03 13h56.51.908240 -0500
0.01,-1,16,311,11,5,left,0.4307604169007391,None,5,11,311,56,353.68292420799844,,,,353.6733147080522,354.26897154108156,354.70317562506534,left,0.4307604169007391,None,demo,001,2025-02-03_13h56.33.003,contrast_sensitivity,2024.2.4,None,2025-02-03 13h56.51.908240 -0500
0.05,1,4,312,12,5,right,0.1490101240342483,None,5,12,312,27,354.71736804104876,,,,354.7052812500624,355.30062304099556,355.45330120797735,right,0.1490101240342483,None,demo,001,2025-02-03_13h56.33.003,contrast_sensitivity,2024.2.4,None,2025-02-03 13h56.51.908240 -0500
1,1,1,313,13,5,right,0.2305429989937693,None,5,13,313,5,355.4612501660595,,,,355.4556698,356.05107687506825,356.28636129107326,right,0.2305429989937693,None,demo,001,2025-02-03_13h56.33.003,contrast_sensitivity,2024.2.4,None,2025-02-03 13h56.51.908240 -0500
0.1,1,2,314,14,5,right,0.1937149999430403,None,5,14,314,16,356.2952897080686,,,,356.2884718750138,356.8839542909991,357.0864076,right,0.1937149999430403,None,demo,001,2025-02-03_13h56.33.003,contrast_sensitivity,2024.2.4,None,2025-02-03 13h56.51.908240 -0500
0.05,1,8,315,15,5,right,0.10855174995958805,None,5,15,315,39,357.10053620801773,,,,357.08875366603024,357.7011000000639,357.82005774998106,right,0.10855174995958805,None,demo,001,2025-02-03_13h56.33.003,contrast_sensitivity,2024.2.4,None,2025-02-03 13h56.51.908240 -0500
0.05,-1,8,316,16,5,left,0.14445516699925065,None,5,16,316,45,357.82833070796914,,,,357.8222755410243,358.4172307080589,358.5696558330674,left,0.14445516699925065,None,demo,001,2025-02-03_13h56.33.003,contrast_sensitivity,2024.2.4,None,2025-02-03 13h56.51.908240 -0500
0.1,1,16,317,17,5,right,0.17320208298042417,None,5,17,317,52,358.5790551250102,,,,358.5728744160151,359.1674570409814,359.3530152080348,right,0.17320208298042417,None,demo,001,2025-02-03_13h56.33.003,contrast_sensitivity,2024.2.4,None,2025-02-03 13h56.51.908240 -0500
0.1,1,8,318,18,5,right,0.07970725,None,5,18,318,40,359.36109920800664,,,,359.3554092500126,359.95075095805805,360.0368817910785,right,0.07970725,None,demo,001,2025-02-03_13h56.33.003,contrast_sensitivity,2024.2.4,None,2025-02-03 13h56.51.908240 -0500
0.0001,1,2,319,19,5,right,0.21431179204955697,None,5,19,319,13,360.04539045807905,,,,360.03910379100125,360.6331387910759,360.85175758297555,right,0.21431179204955697,None,demo,001,2025-02-03_13h56.33.003,contrast_sensitivity,2024.2.4,None,2025-02-03 13h56.51.908240 -0500
1,-1,8,320,20,5,left,0.11873345798812807,None,5,20,320,47,360.8571532,,,,360.85327295807656,361.45070887508336,361.57308658305556,left,0.11873345798812807,None,demo,001,2025-02-03_13h56.33.003,contrast_sensitivity,2024.2.4,None,2025-02-03 13h56.51.908240 -0500
0.05,-1,4,321,21,5,left,0.31710887502413243,None,5,21,321,33,361.5836861249991,,,,361.57484912499785,362.1713042500196,362.5026268750662,left,0.31710887502413243,None,demo,001,2025-02-03_13h56.33.003,contrast_sensitivity,2024.2.4,None,2025-02-03 13h56.51.908240 -0500
0.01,1,16,322,22,5,left,0.11492404097225517,None,5,22,322,50,362.51165066601243,,,,362.50492137507536,363.1005682500545,363.2196656659944,left,0.11492404097225517,None,demo,001,2025-02-03_13h56.33.003,contrast_sensitivity,2024.2.4,None,2025-02-03 13h56.51.908240 -0500
0.01,-1,1,323,23,5,left,0.13160662399604917,None,5,23,323,8,363.2339708750369,,,,363.22132554103155,363.8177879160503,363.95322137500625,left,0.13160662399604917,None,demo,001,2025-02-03_13h56.33.003,contrast_sensitivity,2024.2.4,None,2025-02-03 13h56.51.908240 -0500
0.0001,-1,1,324,24,5,left,0.4896807490149513,None,5,24,324,7,363.9673376249848,,,,363.95525574998464,364.5676519999979,365.06926520797424,left,0.4896807490149513,None,demo,001,2025-02-03_13h56.33.003,contrast_sensitivity,2024.2.4,None,2025-02-03 13h56.51.908240 -0500
0.1,-1,8,325,25,5,left,0.11067237495444715,None,5,25,325,46,365.0767435000744,,,,365.07085362507496,365.66670262499247,365.78726087498944,left,0.11067237495444715,None,demo,001,2025-02-03_13h56.33.003,contrast_sensitivity,2024.2.4,None,2025-02-03 13h56.51.908240 -0500
0.1,1,1,326,26,5,right,0.088555208,None,5,26,326,4,365.8007259160513,,,,365.78960941603873,366.4017478330061,366.5030218750471,right,0.088555208,None,demo,001,2025-02-03_13h56.33.003,contrast_sensitivity,2024.2.4,None,2025-02-03 13h56.51.908240 -0500
0.05,-1,2,327,27,5,left,0.18856066605076194,None,5,27,327,21,366.51726770808455,,,,366.5052620409988,367.1007596660638,367.3029999580467,left,0.18856066605076194,None,demo,001,2025-02-03_13h56.33.003,contrast_sensitivity,2024.2.4,None,2025-02-03 13h56.51.908240 -0500
1,1,8,328,28,5,right,0.055597790982574224,None,5,28,328,41,367.3108247080818,,,,367.30501104099676,367.8996716659749,367.9689464160474,right,0.055597790982574224,None,demo,001,2025-02-03_13h56.33.003,contrast_sensitivity,2024.2.4,None,2025-02-03 13h56.51.908240 -0500
0.01,1,4,329,29,5,right,0.12663783296011388,None,5,29,329,26,367.97429904097226,,,,367.97047250007745,368.5677860410651,368.7028343749698,right,0.12663783296011388,None,demo,001,2025-02-03_13h56.33.003,contrast_sensitivity,2024.2.4,None,2025-02-03 13h56.51.908240 -0500
0.0001,1,16,330,30,5,left,0.22767774993553758,None,5,30,330,49,368.71159554098267,,,,368.70496287499554,369.300731,369.5365836659912,left,0.22767774993553758,None,demo,001,2025-02-03_13h56.33.003,contrast_sensitivity,2024.2.4,None,2025-02-03 13h56.51.908240 -0500
0.1,-1,2,331,31,5,left,0.16684420790988952,None,5,31,331,22,369.5453983329935,,,,369.5388640000019,370.1344464160502,370.3060295410687,left,0.16684420790988952,None,demo,001,2025-02-03_13h56.33.003,contrast_sensitivity,2024.2.4,None,2025-02-03 13h56.51.908240 -0500
0.05,-1,16,332,32,5,left,0.1634879580233246,None,5,32,332,57,370.3169637080282,,,,370.30832766601816,370.9057094580494,371.08580633299425,left,0.1634879580233246,None,demo,001,2025-02-03_13h56.33.003,contrast_sensitivity,2024.2.4,None,2025-02-03 13h56.51.908240 -0500
0.0001,-1,2,333,33,5,right,0.3819814990274608,None,5,33,333,19,371.1005496,,,,371.08711270801723,371.6891998749925,372.07345083297696,right,0.3819814990274608,None,demo,001,2025-02-03_13h56.33.003,contrast_sensitivity,2024.2.4,None,2025-02-03 13h56.51.908240 -0500
1e-08,-1,8,334,34,5,left,0.32089145795907825,None,5,34,334,42,372.0825764,,,,372.0760273,372.67243525001686,373.0026428330457,left,0.32089145795907825,None,demo,001,2025-02-03_13h56.33.003,contrast_sensitivity,2024.2.4,None,2025-02-03 13h56.51.908240 -0500
0.01,1,8,335,35,5,right,0.27953987498767674,None,5,35,335,38,373.0108505410608,,,,373.0045169160003,373.60061575006694,373.8861207080772,right,0.27953987498767674,None,demo,001,2025-02-03_13h56.33.003,contrast_sensitivity,2024.2.4,None,2025-02-03 13h56.51.908240 -0500
0.0001,1,4,336,36,5,left,0.48724304093047976,None,5,36,336,25,373.9005287500331,,,,373.8882380410796,374.5008515000809,375.0037926,left,0.48724304093047976,None,demo,001,2025-02-03_13h56.33.003,contrast_sensitivity,2024.2.4,None,2025-02-03 13h56.51.908240 -0500
1,1,2,337,37,5,right,0.23934424994513392,None,5,37,337,17,375.01716925005894,,,,375.00529341597576,375.60273237503134,375.85102404106874,right,0.23934424994513392,None,demo,001,2025-02-03_13h56.33.003,contrast_sensitivity,2024.2.4,None,2025-02-03 13h56.51.908240 -0500
0.1,-1,4,338,38,5,left,0.2986447080038488,None,5,38,338,34,375.8567217,,,,375.8523441660218,376.43849362502806,376.75293462502304,left,0.2986447080038488,None,demo,001,2025-02-03_13h56.33.003,contrast_sensitivity,2024.2.4,None,2025-02-03 13h56.51.908240 -0500
0.01,-1,2,339,39,5,left,0.24030141602270305,None,5,39,339,20,376.76755216601305,,,,376.75520170805976,377.35072954103816,377.60291795805097,left,0.24030141602270305,None,demo,001,2025-02-03_13h56.33.003,contrast_sensitivity,2024.2.4,None,2025-02-03 13h56.51.908240 -0500
0.1,-1,1,340,40,5,left,0.063410125,None,5,40,340,10,377.61107762507163,,,,377.60526520805433,378.2006731660804,378.2699496659916,left,0.063410125,None,demo,001,2025-02-03_13h56.33.003,contrast_sensitivity,2024.2.4,None,2025-02-03 13h56.51.908240 -0500
1e-08,-1,2,341,41,5,left,0.34563929098658264,None,5,41,341,18,378.28390458307695,,,,378.2722254160326,378.86737145797815,379.2194005,left,0.34563929098658264,None,demo,001,2025-02-03_13h56.33.003,contrast_sensitivity,2024.2.4,None,2025-02-03 13h56.51.908240 -0500
0.0001,1,8,342,42,5,left,0.18328916700556874,None,5,42,342,37,379.22624366602395,,,,379.221974,379.8176689160755,380.00999687507283,left,0.18328916700556874,None,demo,001,2025-02-03_13h56.33.003,contrast_sensitivity,2024.2.4,None,2025-02-03 13h56.51.908240 -0500
0.05,1,1,343,43,5,right,0.32083600002806634,None,5,43,343,3,380.01595625001937,,,,380.0114329580683,380.6180971249705,380.9525862080045,right,0.32083600002806634,None,demo,001,2025-02-03_13h56.33.003,contrast_sensitivity,2024.2.4,None,2025-02-03 13h56.51.908240 -0500
0.0001,1,1,344,44,5,left,0.3383469160180539,None,5,44,344,1,380.96142954099923,,,,380.9545828,381.5505702079972,381.9025960409781,left,0.3383469160180539,None,demo,001,2025-02-03_13h56.33.003,contrast_sensitivity,2024.2.4,None,2025-02-03 13h56.51.908240 -0500
1,-1,16,345,45,5,left,0.10723083291668445,None,5,45,345,59,381.9109454579884,,,,381.90471908298787,382.5007538750069,382.6190799160395,left,0.10723083291668445,None,demo,001,2025-02-03_13h56.33.003,contrast_sensitivity,2024.2.4,None,2025-02-03 13h56.51.908240 -0500
1,1,16,346,46,5,right,0.29131820797920227,None,5,46,346,53,382.62780987506267,,,,382.62136620806996,383.21759970800485,383.51909120799974,right,0.29131820797920227,None,demo,001,2025-02-03_13h56.33.003,contrast_sensitivity,2024.2.4,None,2025-02-03 13h56.51.908240 -0500
0.01,-1,4,347,47,5,left,0.4325114160310477,None,5,47,347,32,383.52623483305797,,,,383.5208652910078,384.1163510410115,384.5515130000422,left,0.4325114160310477,None,demo,001,2025-02-03_13h56.33.003,contrast_sensitivity,2024.2.4,None,2025-02-03 13h56.51.908240 -0500
0.01,1,2,348,48,5,right,0.35349704092368484,None,5,48,348,14,384.55663979100063,,,,384.5528359160526,385.13843599997927,385.5030854580691,right,0.35349704092368484,None,demo,001,2025-02-03_13h56.33.003,contrast_sensitivity,2024.2.4,None,2025-02-03 13h56.51.908240 -0500
1e-08,-1,4,349,49,5,left,0.3912094159750268,None,5,49,349,30,385.5117317499826,,,,385.50527841597795,386.1006829160033,386.50373608304653,left,0.3912094159750268,None,demo,001,2025-02-03_13h56.33.003,contrast_sensitivity,2024.2.4,None,2025-02-03 13h56.51.908240 -0500
1,-1,4,350,50,5,left,0.20741929102223366,None,5,50,350,35,386.5128305830294,,,,386.50675291602965,387.1005653330358,387.3191584580345,left,0.20741929102223366,None,demo,001,2025-02-03_13h56.33.003,contrast_sensitivity,2024.2.4,None,2025-02-03 13h56.51.908240 -0500
0.1,-1,16,351,51,5,left,0.17688649997580796,None,5,51,351,58,387.326592,,,,387.3217372080544,387.9170693750493,388.10337983304635,left,0.17688649997580796,None,demo,001,2025-02-03_13h56.33.003,contrast_sensitivity,2024.2.4,None,2025-02-03 13h56.51.908240 -0500
1e-08,1,1,352,52,5,left,0.3667385409353301,None,5,52,352,0,388.1116848749807,,,,388.1055891660508,388.7010089160176,389.07514904101845,left,0.3667385409353301,None,demo,001,2025-02-03_13h56.33.003,contrast_sensitivity,2024.2.4,None,2025-02-03 13h56.51.908240 -0500
1e-08,-1,1,353,53,5,left,0.337168833,None,5,53,353,6,389.0837266660528,,,,389.07697495806497,389.6705859580543,390.02043637505267,left,0.337168833,None,demo,001,2025-02-03_13h56.33.003,contrast_sensitivity,2024.2.4,None,2025-02-03 13h56.51.908240 -0500
0.01,1,1,354,54,5,left,0.3083193330094218,None,5,54,354,2,390.03403833298944,,,,390.0228510410525,390.6175151660573,390.9362268750556,left,0.3083193330094218,None,demo,001,2025-02-03_13h56.33.003,contrast_sensitivity,2024.2.4,None,2025-02-03 13h56.51.908240 -0500
1e-08,1,16,355,55,5,left,0.2766327919671312,None,5,55,355,48,390.9451601,,,,390.9383147080662,391.5340416660765,391.8183770410251,left,0.2766327919671312,None,demo,001,2025-02-03_13h56.33.003,contrast_sensitivity,2024.2.4,None,2025-02-03 13h56.51.908240 -0500
1,-1,2,356,56,5,left,0.448325208,None,5,56,356,23,391.8241435830714,,,,391.82028391608037,392.4163957500132,392.8757872499991,left,0.448325208,None,demo,001,2025-02-03_13h56.33.003,contrast_sensitivity,2024.2.4,None,2025-02-03 13h56.51.908240 -0500
1,-1,1,357,57,5,left,0.33756358304526657,None,5,57,357,11,392.8838596249698,,,,392.8773042500252,393.4712722080294,393.81953987502493,left,0.33756358304526657,None,demo,001,2025-02-03_13h56.33.003,contrast_sensitivity,2024.2.4,None,2025-02-03 13h56.51.908240 -0500
1e-08,1,4,358,58,5,left,0.5742085420060903,None,5,58,358,24,393.82852516602725,,,,393.82163620798383,394.4174132500775,395.00241841597017,left,0.5742085420060903,None,demo,001,2025-02-03_13h56.33.003,contrast_sensitivity,2024.2.4,None,2025-02-03 13h56.51.908240 -0500
0.0001,-1,8,359,59,5,left,0.5738758329534903,None,5,59,359,43,395.01035079103895,,,,395.00457054097205,395.60071979102213,396.1869052500697,left,0.5738758329534903,None,demo,001,2025-02-03_13h56.33.003,contrast_sensitivity,2024.2.4,None,2025-02-03 13h56.51.908240 -0500