contrast,location,n_cycles,thisN,thisTrialN,thisRepN,response.keys,response.rt,response.duration,trials.thisRepN,trials.thisTrialN,trials.thisN,trials.thisIndex,thisRow.t,notes,begin_experiment.started,begin_experiment.stopped,trial.started,response.started,trial.stopped,trials.response.keys,trials.response.rt,trials.response.duration,participant,session,date,expName,psychopyVersion,frameRate,expStart
,,,,,,,,,,,,,,,0.007427708,1.1034711670363322,,,,,,,demo,001,2025-02-03_14h39.59.865,contrast_sensitivity,2024.2.4,None,2025-02-03 14h40.06.863954 -0500
0.1,-1,1,0,0,0,left,0.3988274580333382,None,0,0,0,12,1.1176474581006914,,,,1.1114616250852123,1.6985766669968143,2.111067667021416,left,0.3988274580333382,None,demo,001,2025-02-03_14h39.59.865,contrast_sensitivity,2024.2.4,None,2025-02-03 14h40.06.863954 -0500
1,-1,2,1,1,0,left,0.31996991706546396,None,0,1,1,27,2.1169928750023246,,,,2.1125285420566797,2.6984720421023667,3.0285437080310658,left,0.31996991706546396,None,demo,001,2025-02-03_14h39.59.865,contrast_sensitivity,2024.2.4,None,2025-02-03 14h40.06.863954 -0500
0.0001,-1,2,2,2,0,left,0.3616174169583246,None,0,2,2,23,3.044495000038296,,,,3.030694500077516,3.6268268330022693,3.995350750046782,left,0.3616174169583246,None,demo,001,2025-02-03_14h39.59.865,contrast_sensitivity,2024.2.4,None,2025-02-03 14h40.06.863954 -0500
0.001,-1,8,3,3,0,left,0.3107771660434082,None,0,3,3,52,4.004365333006717,,,,3.997468125075102,4.593673499999568,4.912362958071753,left,0.3107771660434082,None,demo,001,2025-02-03_14h39.59.865,contrast_sensitivity,2024.2.4,None,2025-02-03 14h40.06.863954 -0500
0.0001,-1,16,4,4,0,left,0.43162574898451567,None,0,4,4,65,4.920758167048916,,,,4.914443458081223,5.5106703750789165,5.945459083,left,0.43162574898451567,None,demo,001,2025-02-03_14h39.59.865,contrast_sensitivity,2024.2.4,None,2025-02-03 14h40.06.863954 -0500
0.1,-1,16,5,5,0,left,0.2777270410442725,None,0,5,5,68,5.953790917061269,,,,5.947479833033867,6.543614792,6.8297152920858935,left,0.2777270410442725,None,demo,001,2025-02-03_14h39.59.865,contrast_sensitivity,2024.2.4,None,2025-02-03 14h40.06.863954 -0500
1e-08,-1,2,6,6,0,left,0.450272249,None,0,6,6,21,6.838058042,,,,6.83218,7.426956875016913,7.883515875088051,left,0.450272249,None,demo,001,2025-02-03_14h39.59.865,contrast_sensitivity,2024.2.4,None,2025-02-03 14h40.06.863954 -0500
0.001,1,2,7,7,0,right,0.22327070799656212,None,0,7,7,17,7.893202375038527,,,,7.885678375023417,8.482005875,8.712004625005648,right,0.22327070799656212,None,demo,001,2025-02-03_14h39.59.865,contrast_sensitivity,2024.2.4,None,2025-02-03 14h40.06.863954 -0500
0.001,1,4,8,8,0,right,0.2990921239834279,None,0,8,8,31,8.720046417,,,,8.713940917048603,9.310184750007465,9.611630333,right,0.2990921239834279,None,demo,001,2025-02-03_14h39.59.865,contrast_sensitivity,2024.2.4,None,2025-02-03 14h40.06.863954 -0500
0.0001,-1,8,9,9,0,left,0.26571749907452613,None,0,9,9,51,9.617644167039543,,,,9.613164458074607,10.209460583049804,10.478126042056829,left,0.26571749907452613,None,demo,001,2025-02-03_14h39.59.865,contrast_sensitivity,2024.2.4,None,2025-02-03 14h40.06.863954 -0500
0.01,-1,4,10,10,0,left,0.21224587503820658,None,0,10,10,39,10.48548087500967,,,,10.479914750088938,11.076953542069532,11.299074417096563,left,0.21224587503820658,None,demo,001,2025-02-03_14h39.59.865,contrast_sensitivity,2024.2.4,None,2025-02-03 14h40.06.863954 -0500
0.1,1,2,11,11,0,right,0.10678491601720452,None,0,11,11,19,11.310375833068974,,,,11.300391625030898,11.898449875065126,12.012075542006642,right,0.10678491601720452,None,demo,001,2025-02-03_14h39.59.865,contrast_sensitivity,2024.2.4,None,2025-02-03 14h40.06.863954 -0500
0.1,1,8,12,12,0,right,0.18196179100777954,None,0,12,12,47,12.019255875027739,,,,12.014429125003517,12.611189792049117,12.798757625045255,right,0.18196179100777954,None,demo,001,2025-02-03_14h39.59.865,contrast_sensitivity,2024.2.4,None,2025-02-03 14h40.06.863954 -0500
0.01,1,4,13,13,0,right,0.13743887504097074,None,0,13,13,32,12.809814708074555,,,,12.799813333083875,13.410640125046484,13.549776875064708,right,0.13743887504097074,None,demo,001,2025-02-03_14h39.59.865,contrast_sensitivity,2024.2.4,None,2025-02-03 14h40.06.863954 -0500
0.001,1,8,14,14,0,right,0.2705405419692397,None,0,14,14,45,13.559998250100762,,,,13.551788542070426,14.147676667082123,14.428942833095789,right,0.2705405419692397,None,demo,001,2025-02-03_14h39.59.865,contrast_sensitivity,2024.2.4,None,2025-02-03 14h40.06.863954 -0500
0.01,-1,1,15,15,0,left,0.24725149990990758,None,0,15,15,11,14.438059375039302,,,,14.431551125016995,15.043871125089936,15.295743250055239,left,0.24725149990990758,None,demo,001,2025-02-03_14h39.59.865,contrast_sensitivity,2024.2.4,None,2025-02-03 14h40.06.863954 -0500
1,1,4,16,16,0,right,0.082961583,None,0,16,16,34,15.310182792018168,,,,15.29806025000289,15.910442333086394,15.996063792030327,right,0.082961583,None,demo,001,2025-02-03_14h39.59.865,contrast_sensitivity,2024.2.4,None,2025-02-03 14h40.06.863954 -0500
1e-08,1,8,17,17,0,right,0.18665849999524653,None,0,17,17,42,16.004748292034492,,,,15.99834750010632,16.593375666998327,16.783762042061426,right,0.18665849999524653,None,demo,001,2025-02-03_14h39.59.865,contrast_sensitivity,2024.2.4,None,2025-02-03 14h40.06.863954 -0500
0.01,1,2,18,18,0,right,0.14813799900002778,None,0,18,18,18,16.793175333063118,,,,16.78544700006023,17.39392579207197,17.545343125006184,right,0.14813799900002778,None,demo,001,2025-02-03_14h39.59.865,contrast_sensitivity,2024.2.4,None,2025-02-03 14h40.06.863954 -0500
0.01,1,8,19,19,0,right,0.3502638329518959,None,0,19,19,46,17.55031250009779,,,,17.54674583300948,18.142698708106764,18.498367333086208,right,0.3502638329518959,None,demo,001,2025-02-03_14h39.59.865,contrast_sensitivity,2024.2.4,None,2025-02-03 14h40.06.863954 -0500
0.0001,1,2,20,20,0,right,0.3302944169845432,None,0,20,20,16,18.509162375004962,,,,18.499757083016448,19.093774083070457,19.42757671,right,0.3302944169845432,None,demo,001,2025-02-03_14h39.59.865,contrast_sensitivity,2024.2.4,None,2025-02-03 14h40.06.863954 -0500
1e-06,1,2,21,21,0,right,0.35246962402015924,None,0,21,21,15,19.433544625062495,,,,19.429075375082903,20.014489958062768,20.379480458097532,right,0.35246962402015924,None,demo,001,2025-02-03_14h39.59.865,contrast_sensitivity,2024.2.4,None,2025-02-03 14h40.06.863954 -0500
0.0001,-1,1,22,22,0,left,0.4109860829776153,None,0,22,22,9,20.388345125014894,,,,20.381713708047755,20.976943292072974,21.395905958022922,left,0.4109860829776153,None,demo,001,2025-02-03_14h39.59.865,contrast_sensitivity,2024.2.4,None,2025-02-03 14h40.06.863954 -0500
1e-06,-1,2,23,23,0,right,0.4462407910032198,None,0,23,23,22,21.40443854,,,,21.398051625001244,21.99368337506894,22.449545583105646,right,0.4462407910032198,None,demo,001,2025-02-03_14h39.59.865,contrast_sensitivity,2024.2.4,None,2025-02-03 14h40.06.863954 -0500
1e-08,-1,1,24,24,0,left,0.5304638330126181,None,0,24,24,7,22.46023537509609,,,,22.451668542111292,23.048438291996717,23.59548579202965,left,0.5304638330126181,None,demo,001,2025-02-03_14h39.59.865,contrast_sensitivity,2024.2.4,None,2025-02-03 14h40.06.863954 -0500
0.01,1,1,25,25,0,right,0.2523770830594003,None,0,25,25,4,23.60451275005471,,,,23.597739083110355,24.193488208111376,24.449921042076312,right,0.2523770830594003,None,demo,001,2025-02-03_14h39.59.865,contrast_sensitivity,2024.2.4,None,2025-02-03 14h40.06.863954 -0500
1e-08,1,4,26,26,0,right,0.3892710419604555,None,0,26,26,28,24.459960292093456,,,,24.452188541996293,25.04771991702728,25.445726125035435,right,0.3892710419604555,None,demo,001,2025-02-03_14h39.59.865,contrast_sensitivity,2024.2.4,None,2025-02-03 14h40.06.863954 -0500
0.01,1,16,27,27,0,right,0.4142841249704361,None,0,27,27,60,25.45447208,,,,25.44780329207424,26.04252258304041,26.46094758308027,right,0.4142841249704361,None,demo,001,2025-02-03_14h39.59.865,contrast_sensitivity,2024.2.4,None,2025-02-03 14h40.06.863954 -0500
1e-08,1,2,28,28,0,left,0.39529958297498524,None,0,28,28,14,26.466304458095692,,,,26.46236725000199,27.048487250111066,27.446162667009048,left,0.39529958297498524,None,demo,001,2025-02-03_14h39.59.865,contrast_sensitivity,2024.2.4,None,2025-02-03 14h40.06.863954 -0500
1e-06,1,16,29,29,0,right,0.29727129207458347,None,0,29,29,57,27.46024095802568,,,,27.448317250004038,28.04351983300876,28.34532967,right,0.29727129207458347,None,demo,001,2025-02-03_14h39.59.865,contrast_sensitivity,2024.2.4,None,2025-02-03 14h40.06.863954 -0500
1,-1,16,30,30,0,left,0.3190561659866944,None,0,30,30,69,28.353686708025634,,,,28.347434125025757,28.943665917031467,29.266874375054613,left,0.3190561659866944,None,demo,001,2025-02-03_14h39.59.865,contrast_sensitivity,2024.2.4,None,2025-02-03 14h40.06.863954 -0500
0.001,-1,4,31,31,0,left,0.2790292489808053,None,0,31,31,38,29.27657791704405,,,,29.269455750007182,29.864701958023943,30.14588533,left,0.2790292489808053,None,demo,001,2025-02-03_14h39.59.865,contrast_sensitivity,2024.2.4,None,2025-02-03 14h40.06.863954 -0500
0.0001,-1,4,32,32,0,left,0.13897370791528374,None,0,32,32,37,30.160173167008907,,,,30.147759875049815,30.743779833079316,30.895621167030185,left,0.13897370791528374,None,demo,001,2025-02-03_14h39.59.865,contrast_sensitivity,2024.2.4,None,2025-02-03 14h40.06.863954 -0500
1e-08,-1,16,33,33,0,left,0.3879479580791667,None,0,33,33,63,30.904122375068255,,,,30.898040500003844,31.493715333053842,31.89636129210703,left,0.3879479580791667,None,demo,001,2025-02-03_14h39.59.865,contrast_sensitivity,2024.2.4,None,2025-02-03 14h40.06.863954 -0500
0.0001,1,8,34,34,0,right,0.4487879580119625,None,0,34,34,44,31.905424708034843,,,,31.898673042072915,32.49790004210081,32.94869912508875,right,0.4487879580119625,None,demo,001,2025-02-03_14h39.59.865,contrast_sensitivity,2024.2.4,None,2025-02-03 14h40.06.863954 -0500
0.1,1,4,35,35,0,right,0.087868625,None,0,35,35,33,32.95981345803011,,,,32.950018333038315,33.560747000039555,33.66105854208581,right,0.087868625,None,demo,001,2025-02-03_14h39.59.865,contrast_sensitivity,2024.2.4,None,2025-02-03 14h40.06.863954 -0500
1,-1,1,36,36,0,left,0.20736791600938886,None,0,36,36,13,33.666678542038426,,,,33.662042917101644,34.259226292022504,34.477703000069596,left,0.20736791600938886,None,demo,001,2025-02-03_14h39.59.865,contrast_sensitivity,2024.2.4,None,2025-02-03 14h40.06.863954 -0500
0.1,1,1,37,37,0,right,0.090372249,None,0,37,37,5,34.48307720804587,,,,34.47921179200057,35.07723833306227,35.171542958007194,right,0.090372249,None,demo,001,2025-02-03_14h39.59.865,contrast_sensitivity,2024.2.4,None,2025-02-03 14h40.06.863954 -0500
1e-06,1,8,38,38,0,right,0.21961795794777572,None,0,38,38,43,35.18026504199952,,,,35.17286992,35.777629833086394,36.00001358310692,right,0.21961795794777572,None,demo,001,2025-02-03_14h39.59.865,contrast_sensitivity,2024.2.4,None,2025-02-03 14h40.06.863954 -0500
1e-08,1,16,39,39,0,left,0.49748545803595334,None,0,39,39,56,36.00994862499647,,,,36.002526958007365,36.59811188,37.09966029203497,left,0.49748545803595334,None,demo,001,2025-02-03_14h39.59.865,contrast_sensitivity,2024.2.4,None,2025-02-03 14h40.06.863954 -0500
1,1,8,40,40,0,right,0.14426704100333154,None,0,40,40,48,37.10996117,,,,37.10178820800502,37.69836025009863,37.84532108309213,right,0.14426704100333154,None,demo,001,2025-02-03_14h39.59.865,contrast_sensitivity,2024.2.4,None,2025-02-03 14h40.06.863954 -0500
1,-1,8,41,41,0,left,0.20961025,None,0,41,41,55,37.85402775008697,,,,37.847425875021145,38.443905125022866,38.66224100010004,left,0.20961025,None,demo,001,2025-02-03_14h39.59.865,contrast_sensitivity,2024.2.4,None,2025-02-03 14h40.06.863954 -0500
1e-06,-1,1,42,42,0,left,0.28432599909137934,None,0,42,42,8,38.671115667093545,,,,38.66446662507951,39.260172542068176,39.551090542110614,left,0.28432599909137934,None,demo,001,2025-02-03_14h39.59.865,contrast_sensitivity,2024.2.4,None,2025-02-03 14h40.06.863954 -0500
1,-1,4,43,43,0,left,0.14378112403210253,None,0,43,43,41,39.55903329199646,,,,39.55320617,40.14770866709296,40.296550833038054,left,0.14378112403210253,None,demo,001,2025-02-03_14h39.59.865,contrast_sensitivity,2024.2.4,None,2025-02-03 14h40.06.863954 -0500
1e-06,-1,16,44,44,0,left,0.2047982079675421,None,0,44,44,64,40.31011800002307,,,,40.29879608307965,40.91062504204456,41.12908625009004,left,0.2047982079675421,None,demo,001,2025-02-03_14h39.59.865,contrast_sensitivity,2024.2.4,None,2025-02-03 14h40.06.863954 -0500
1,1,1,45,45,0,right,0.18450024898629636,None,0,45,45,6,41.13807066704612,,,,41.13108708302025,41.72688983310945,41.913142333040014,right,0.18450024898629636,None,demo,001,2025-02-03_14h39.59.865,contrast_sensitivity,2024.2.4,None,2025-02-03 14h40.06.863954 -0500
0.1,-1,8,46,46,0,left,0.24569725000765175,None,0,46,46,54,41.92575687507633,,,,41.91378946,42.51273763,42.76232970808633,left,0.24569725000765175,None,demo,001,2025-02-03_14h39.59.865,contrast_sensitivity,2024.2.4,None,2025-02-03 14h40.06.863954 -0500
1,1,2,47,47,0,right,0.077404375,None,0,47,47,20,42.769839625107124,,,,42.76404037501197,43.36004175,43.44534662505612,right,0.077404375,None,demo,001,2025-02-03_14h39.59.865,contrast_sensitivity,2024.2.4,None,2025-02-03 14h40.06.863954 -0500
0.1,1,16,48,48,0,right,0.13777124998159707,None,0,48,48,61,43.453905042028055,,,,43.44769346,44.04359562508762,44.19555079203565,right,0.13777124998159707,None,demo,001,2025-02-03_14h39.59.865,contrast_sensitivity,2024.2.4,None,2025-02-03 14h40.06.863954 -0500
1,1,16,49,49,0,right,0.1109295409405604,None,0,49,49,62,44.20273904199712,,,,44.19786475005094,44.793440583045594,44.91156045801472,right,0.1109295409405604,None,demo,001,2025-02-03_14h39.59.865,contrast_sensitivity,2024.2.4,None,2025-02-03 14h40.06.863954 -0500
0.0001,1,16,50,50,0,right,0.21948491595685482,None,0,50,50,58,44.91753854206763,,,,44.912816125084646,45.509940458112396,45.73497120803222,right,0.21948491595685482,None,demo,001,2025-02-03_14h39.59.865,contrast_sensitivity,2024.2.4,None,2025-02-03 14h40.06.863954 -0500
0.1,-1,2,51,51,0,left,0.20519041595980525,None,0,51,51,26,45.74264087504707,,,,45.73711912508588,46.33228241710458,46.54579537501559,left,0.20519041595980525,None,demo,001,2025-02-03_14h39.59.865,contrast_sensitivity,2024.2.4,None,2025-02-03 14h40.06.863954 -0500
0.001,-1,2,52,52,0,left,0.1259030409855768,None,0,52,52,24,46.55412641703151,,,,46.54779733309988,47.14340887509752,47.27939350006636,left,0.1259030409855768,None,demo,001,2025-02-03_14h39.59.865,contrast_sensitivity,2024.2.4,None,2025-02-03 14h40.06.863954 -0500
0.01,-1,2,53,53,0,left,0.11353824997786433,None,0,53,53,25,47.288000042084605,,,,47.28143937501591,47.87679738,47.995223083067685,left,0.11353824997786433,None,demo,001,2025-02-03_14h39.59.865,contrast_sensitivity,2024.2.4,None,2025-02-03 14h40.06.863954 -0500
0.01,-1,16,54,54,0,left,0.3329044160200283,None,0,54,54,67,48.010130333015695,,,,47.99634612502996,48.59338600002229,48.92866295808926,left,0.3329044160200283,None,demo,001,2025-02-03_14h39.59.865,contrast_sensitivity,2024.2.4,None,2025-02-03 14h40.06.863954 -0500
0.01,-1,8,55,55,0,left,0.33345658297184855,None,0,55,55,53,48.93729324999731,,,,48.93081233,49.526777749997564,49.862466000020504,left,0.33345658297184855,None,demo,001,2025-02-03_14h39.59.865,contrast_sensitivity,2024.2.4,None,2025-02-03 14h40.06.863954 -0500
0.001,1,16,56,56,0,left,0.2309289169497788,None,0,56,56,59,49.87019520800095,,,,49.86487050005235,50.459277917048894,50.694272625027224,left,0.2309289169497788,None,demo,001,2025-02-03_14h39.59.865,contrast_sensitivity,2024.2.4,None,2025-02-03 14h40.06.863954 -0500
0.0001,1,4,57,57,0,right,0.3439693748950958,None,0,57,57,30,50.70017558301333,,,,50.69578720803838,51.29334675008431,51.64538862509653,right,0.3439693748950958,None,demo,001,2025-02-03_14h39.59.865,contrast_sensitivity,2024.2.4,None,2025-02-03 14h40.06.863954 -0500
1e-06,-1,4,58,58,0,left,0.18660012492910028,None,0,58,58,36,51.65399900008924,,,,51.64780233299825,52.24355162505526,52.432515916996635,left,0.18660012492910028,None,demo,001,2025-02-03_14h39.59.865,contrast_sensitivity,2024.2.4,None,2025-02-03 14h40.06.863954 -0500
1e-06,1,4,59,59,0,left,0.24599979096092284,None,0,59,59,29,52.44334783300292,,,,52.43463837506715,53.03136170806829,53.278862667037174,left,0.24599979096092284,None,demo,001,2025-02-03_14h39.59.865,contrast_sensitivity,2024.2.4,None,2025-02-03 14h40.06.863954 -0500
1e-08,-1,4,60,60,0,left,0.2789737080456689,None,0,60,60,35,53.29349250008818,,,,53.280384583049454,53.87722812499851,54.16203791706357,left,0.2789737080456689,None,demo,001,2025-02-03_14h39.59.865,contrast_sensitivity,2024.2.4,None,2025-02-03 14h40.06.863954 -0500
1e-08,-1,8,61,61,0,right,0.4799995409557596,None,0,61,61,49,54.170955958077684,,,,54.16424812504556,54.76012770808302,55.245536542031914,right,0.4799995409557596,None,demo,001,2025-02-03_14h39.59.865,contrast_sensitivity,2024.2.4,None,2025-02-03 14h40.06.863954 -0500
1e-08,1,1,62,62,0,left,0.42310095799621195,None,0,62,62,0,55.254002333036624,,,,55.24769412504975,55.84396833309438,56.279302708106115,left,0.42310095799621195,None,demo,001,2025-02-03_14h39.59.865,contrast_sensitivity,2024.2.4,None,2025-02-03 14h40.06.863954 -0500
0.0001,1,1,63,63,0,right,0.6612853748956695,None,0,63,63,2,56.287321708048694,,,,56.28164862503763,56.876868583029136,57.54608625010587,right,0.6612853748956695,None,demo,001,2025-02-03_14h39.59.865,contrast_sensitivity,2024.2.4,None,2025-02-03 14h40.06.863954 -0500
1e-06,1,1,64,64,0,left,0.19421804102603346,None,0,64,64,1,57.55475487501826,,,,57.548318583052605,58.14583233301528,58.34402325004339,left,0.19421804102603346,None,demo,001,2025-02-03_14h39.59.865,contrast_sensitivity,2024.2.4,None,2025-02-03 14h40.06.863954 -0500
0.001,-1,16,65,65,0,left,0.3093859580112621,None,0,65,65,66,58.34907920809928,,,,58.34538529,58.94259720807895,59.26104537502397,left,0.3093859580112621,None,demo,001,2025-02-03_14h39.59.865,contrast_sensitivity,2024.2.4,None,2025-02-03 14h40.06.863954 -0500
0.1,-1,4,66,66,0,left,0.015335624,None,0,66,66,40,59.26559362502303,,,,59.262384792091325,59.86065754201263,59.88276475004386,left,0.015335624,None,demo,001,2025-02-03_14h39.59.865,contrast_sensitivity,2024.2.4,None,2025-02-03 14h40.06.863954 -0500
0.001,1,1,67,67,0,left,0.3149565829662606,None,0,67,67,3,59.89351904205978,,,,59.885365916998126,60.47699504205957,60.795780417043716,left,0.3149565829662606,None,demo,001,2025-02-03_14h39.59.865,contrast_sensitivity,2024.2.4,None,2025-02-03 14h40.06.863954 -0500
1e-06,-1,8,68,68,0,left,0.1909195421030745,None,0,68,68,50,60.80431608308572,,,,60.79784021,61.39406983309891,61.596353792003356,left,0.1909195421030745,None,demo,001,2025-02-03_14h39.59.865,contrast_sensitivity,2024.2.4,None,2025-02-03 14h40.06.863954 -0500
0.001,-1,1,69,69,0,left,0.2625330409500748,None,0,69,69,10,61.610161958029494,,,,61.59867450001184,62.193429958075285,62.46211970807053,left,0.2625330409500748,None,demo,001,2025-02-03_14h39.59.865,contrast_sensitivity,2024.2.4,None,2025-02-03 14h40.06.863954 -0500
1,1,4,70,0,1,right,0.23548445804044604,None,1,0,70,34,62.47152975003701,,,,62.46454325004015,63.06040733,63.29964158299845,right,0.23548445804044604,None,demo,001,2025-02-03_14h39.59.865,contrast_sensitivity,2024.2.4,None,2025-02-03 14h40.06.863954 -0500
1e-08,-1,2,71,1,1,right,0.34630666696466506,None,1,1,71,21,63.309832750004716,,,,63.30195979203563,63.897590208100155,64.25014870800078,right,0.34630666696466506,None,demo,001,2025-02-03_14h39.59.865,contrast_sensitivity,2024.2.4,None,2025-02-03 14h40.06.863954 -0500
0.1,1,4,72,2,1,right,0.1771748330211267,None,1,2,72,33,64.25912516703829,,,,64.25222925003618,64.85173991706688,65.03441687510349,right,0.1771748330211267,None,demo,001,2025-02-03_14h39.59.865,contrast_sensitivity,2024.2.4,None,2025-02-03 14h40.06.863954 -0500
1e-08,1,2,73,3,1,right,0.33346391608938575,None,1,3,73,14,65.04222308308817,,,,65.03652245807461,65.63135041703936,65.96967750007752,right,0.33346391608938575,None,demo,001,2025-02-03_14h39.59.865,contrast_sensitivity,2024.2.4,None,2025-02-03 14h40.06.863954 -0500
1e-06,1,8,74,4,1,left,0.36553849990013987,None,1,4,74,43,65.97590308310464,,,,65.97113412502222,66.56231770804152,66.93157737504225,left,0.36553849990013987,None,demo,001,2025-02-03_14h39.59.865,contrast_sensitivity,2024.2.4,None,2025-02-03 14h40.06.863954 -0500
0.0001,-1,2,75,5,1,left,0.22297020792029798,None,1,5,75,23,66.94248133304063,,,,66.93298975005746,67.52685466699768,67.76262970804237,left,0.22297020792029798,None,demo,001,2025-02-03_14h39.59.865,contrast_sensitivity,2024.2.4,None,2025-02-03 14h40.06.863954 -0500
0.001,-1,4,76,6,1,left,0.21265766699798405,None,1,6,76,38,67.77677608304657,,,,67.76495962508488,68.37725695804693,68.59593558299821,left,0.21265766699798405,None,demo,001,2025-02-03_14h39.59.865,contrast_sensitivity,2024.2.4,None,2025-02-03 14h40.06.863954 -0500
1,-1,16,77,7,1,left,0.1493239999981597,None,1,7,77,69,68.60486725,,,,68.59809716709424,69.19348941708449,69.34578338,left,0.1493239999981597,None,demo,001,2025-02-03_14h39.59.865,contrast_sensitivity,2024.2.4,None,2025-02-03 14h40.06.863954 -0500
1,-1,4,78,8,1,left,0.097129917,None,1,8,78,41,69.36008425010368,,,,69.34774916700553,69.94863691704813,70.06279941706453,left,0.097129917,None,demo,001,2025-02-03_14h39.59.865,contrast_sensitivity,2024.2.4,None,2025-02-03 14h40.06.863954 -0500
0.0001,1,1,79,9,1,right,0.2661499170353636,None,1,9,79,2,70.07680283300579,,,,70.06513308302965,70.66054570802953,70.92952816700563,right,0.2661499170353636,None,demo,001,2025-02-03_14h39.59.865,contrast_sensitivity,2024.2.4,None,2025-02-03 14h40.06.863954 -0500
0.01,-1,1,80,10,1,left,0.530859791,None,1,10,80,11,70.93869166704826,,,,70.93213208310772,71.52682958,72.05985254200641,left,0.530859791,None,demo,001,2025-02-03_14h39.59.865,contrast_sensitivity,2024.2.4,None,2025-02-03 14h40.06.863954 -0500
1,-1,2,81,11,1,left,0.15785129100549966,None,1,11,81,27,72.06202175002545,,,,72.06042754207738,72.64788787509315,72.81266462500207,left,0.15785129100549966,None,demo,001,2025-02-03_14h39.59.865,contrast_sensitivity,2024.2.4,None,2025-02-03 14h40.06.863954 -0500
0.001,1,16,82,12,1,left,0.40654441609513015,None,1,12,82,59,72.82083116704598,,,,72.81507154204883,73.41012758307625,73.82757608301472,left,0.40654441609513015,None,demo,001,2025-02-03_14h39.59.865,contrast_sensitivity,2024.2.4,None,2025-02-03 14h40.06.863954 -0500
0.1,1,1,83,13,1,right,0.1418392079649493,None,1,13,83,5,73.833239,,,,73.82886808307376,74.42578916705679,74.57777792,right,0.1418392079649493,None,demo,001,2025-02-03_14h39.59.865,contrast_sensitivity,2024.2.4,None,2025-02-03 14h40.06.863954 -0500
0.1,-1,8,84,14,1,left,0.2553409580141306,None,1,14,84,54,74.58326371,,,,74.57928845810238,75.17625800007954,75.44442579208408,left,0.2553409580141306,None,demo,001,2025-02-03_14h39.59.865,contrast_sensitivity,2024.2.4,None,2025-02-03 14h40.06.863954 -0500
1e-06,1,2,85,15,1,left,0.2529437489574775,None,1,15,85,15,75.45036529,,,,75.44589279207867,76.03167370799929,76.29569629207253,left,0.2529437489574775,None,demo,001,2025-02-03_14h39.59.865,contrast_sensitivity,2024.2.4,None,2025-02-03 14h40.06.863954 -0500
0.0001,-1,4,86,16,1,left,0.28024174901656806,None,1,16,86,37,76.30420541705098,,,,76.29798017,76.89334920805413,77.17772708309349,left,0.28024174901656806,None,demo,001,2025-02-03_14h39.59.865,contrast_sensitivity,2024.2.4,None,2025-02-03 14h40.06.863954 -0500
0.01,1,8,87,17,1,left,0.2671927500050515,None,1,17,87,46,77.18388716701884,,,,77.17919520800933,77.77732895803638,78.06281754199881,left,0.2671927500050515,None,demo,001,2025-02-03_14h39.59.865,contrast_sensitivity,2024.2.4,None,2025-02-03 14h40.06.863954 -0500
0.001,1,4,88,18,1,right,0.19556320796255022,None,1,18,88,31,78.07731983310077,,,,78.06525924999733,78.66010788,78.86170687503181,right,0.19556320796255022,None,demo,001,2025-02-03_14h39.59.865,contrast_sensitivity,2024.2.4,None,2025-02-03 14h40.06.863954 -0500
0.001,1,2,89,19,1,right,0.25667062506545335,None,1,19,89,17,78.87682283308823,,,,78.86292308301199,79.46078112500254,79.72940341709182,right,0.25667062506545335,None,demo,001,2025-02-03_14h39.59.865,contrast_sensitivity,2024.2.4,None,2025-02-03 14h40.06.863954 -0500
0.001,-1,1,90,20,1,right,0.5060827080160379,None,1,20,90,10,79.73691725009121,,,,79.73164375009947,80.34437254210934,80.86225850007031,right,0.5060827080160379,None,demo,001,2025-02-03_14h39.59.865,contrast_sensitivity,2024.2.4,None,2025-02-03 14h40.06.863954 -0500
1,-1,8,91,21,1,left,0.2312582490267232,None,1,21,91,55,80.87084058,,,,80.86417495808564,81.46017662505619,81.69673704204615,left,0.2312582490267232,None,demo,001,2025-02-03_14h39.59.865,contrast_sensitivity,2024.2.4,None,2025-02-03 14h40.06.863954 -0500
0.001,1,1,92,22,1,left,0.42428924900013953,None,1,22,92,3,81.71012625005096,,,,81.69840462505817,82.29312450008001,82.72761237504892,left,0.42428924900013953,None,demo,001,2025-02-03_14h39.59.865,contrast_sensitivity,2024.2.4,None,2025-02-03 14h40.06.863954 -0500
1e-06,-1,2,93,23,1,left,0.3686588329728693,None,1,23,93,22,82.73388375004288,,,,82.72903175000101,83.32573520799633,83.69855212501716,left,0.3686588329728693,None,demo,001,2025-02-03_14h39.59.865,contrast_sensitivity,2024.2.4,None,2025-02-03 14h40.06.863954 -0500
0.0001,1,16,94,24,1,left,0.3930656249867752,None,1,24,94,58,83.70997375,,,,83.70106170803774,84.29342812509276,84.69616262509953,left,0.3930656249867752,None,demo,001,2025-02-03_14h39.59.865,contrast_sensitivity,2024.2.4,None,2025-02-03 14h40.06.863954 -0500
1e-08,1,16,95,25,1,left,0.38000150001607835,None,1,25,95,56,84.70424945803825,,,,84.69868937507272,85.29349583305884,85.67966791708022,left,0.38000150001607835,None,demo,001,2025-02-03_14h39.59.865,contrast_sensitivity,2024.2.4,None,2025-02-03 14h40.06.863954 -0500
0.1,-1,2,96,26,1,left,0.3106869990006089,None,1,26,96,26,85.68833058304153,,,,85.68223404,86.27678095805459,86.59555716707837,left,0.3106869990006089,None,demo,001,2025-02-03_14h39.59.865,contrast_sensitivity,2024.2.4,None,2025-02-03 14h40.06.863954 -0500
0.01,-1,16,97,27,1,left,0.3338997500250116,None,1,27,97,67,86.60431704,,,,86.59753162506968,87.19341512501705,87.53274100006092,left,0.3338997500250116,None,demo,001,2025-02-03_14h39.59.865,contrast_sensitivity,2024.2.4,None,2025-02-03 14h40.06.863954 -0500
0.0001,1,2,98,28,1,right,0.23091991594992578,None,1,28,98,16,87.54331146,,,,87.53484529210255,88.13142825011164,88.37082412501331,right,0.23091991594992578,None,demo,001,2025-02-03_14h39.59.865,contrast_sensitivity,2024.2.4,None,2025-02-03 14h40.06.863954 -0500
0.1,1,8,99,29,1,right,0.34910483297426254,None,1,29,99,47,88.39305362501182,,,,88.37228350003716,88.97719041700475,89.32930675009266,right,0.34910483297426254,None,demo,001,2025-02-03_14h39.59.865,contrast_sensitivity,2024.2.4,None,2025-02-03 14h40.06.863954 -0500
0.01,-1,2,100,30,1,right,0.44242399896029383,None,1,30,100,25,89.33765012503136,,,,89.33126687502954,89.92581691709347,90.37801825010683,right,0.44242399896029383,None,demo,001,2025-02-03_14h39.59.865,contrast_sensitivity,2024.2.4,None,2025-02-03 14h40.06.863954 -0500
0.1,1,2,101,31,1,right,0.33827829197980464,None,1,31,101,19,90.38413000002038,,,,90.37975429208018,90.97692729206756,91.32901975000277,right,0.33827829197980464,None,demo,001,2025-02-03_14h39.59.865,contrast_sensitivity,2024.2.4,None,2025-02-03 14h40.06.863954 -0500
1e-06,1,1,102,32,1,right,0.6445417499635369,None,1,32,102,1,91.33679525007028,,,,91.33129288,91.92677625000942,92.57941766700242,right,0.6445417499635369,None,demo,001,2025-02-03_14h39.59.865,contrast_sensitivity,2024.2.4,None,2025-02-03 14h40.06.863954 -0500
0.1,-1,4,103,33,1,left,0.2755179579835385,None,1,33,103,40,92.58698145800736,,,,92.58165258308873,93.17675545800012,93.4627375,left,0.2755179579835385,None,demo,001,2025-02-03_14h39.59.865,contrast_sensitivity,2024.2.4,None,2025-02-03 14h40.06.863954 -0500
0.001,-1,2,104,34,1,left,0.3240044580306858,None,1,34,104,24,93.47619513,,,,93.46505770809017,94.06028858,94.39505775005091,left,0.3240044580306858,None,demo,001,2025-02-03_14h39.59.865,contrast_sensitivity,2024.2.4,None,2025-02-03 14h40.06.863954 -0500
0.01,1,4,105,35,1,right,0.321776167,None,1,35,105,32,94.40346329205204,,,,94.39732095808722,94.99332933302503,95.32851687504444,right,0.321776167,None,demo,001,2025-02-03_14h39.59.865,contrast_sensitivity,2024.2.4,None,2025-02-03 14h40.06.863954 -0500
1,1,8,106,36,1,right,0.2303768739802763,None,1,36,106,48,95.33774138,,,,95.33087091706693,95.92674420808908,96.16265437507536,right,0.2303768739802763,None,demo,001,2025-02-03_14h39.59.865,contrast_sensitivity,2024.2.4,None,2025-02-03 14h40.06.863954 -0500
1e-08,1,1,107,37,1,right,0.3027807909529656,None,1,37,107,0,96.17076591704972,,,,96.16502746,96.76028925005812,97.06660213,right,0.3027807909529656,None,demo,001,2025-02-03_14h39.59.865,contrast_sensitivity,2024.2.4,None,2025-02-03 14h40.06.863954 -0500
1e-06,-1,16,108,38,1,right,0.6314128749072552,None,1,38,108,64,97.07651462510694,,,,97.06834550003987,97.66466675000265,98.29755988,right,0.6314128749072552,None,demo,001,2025-02-03_14h39.59.865,contrast_sensitivity,2024.2.4,None,2025-02-03 14h40.06.863954 -0500
1,1,16,109,39,1,right,0.15593854198232293,None,1,39,109,62,98.30909733299632,,,,98.29902270808816,98.89315795805305,99.06295979209244,right,0.15593854198232293,None,demo,001,2025-02-03_14h39.59.865,contrast_sensitivity,2024.2.4,None,2025-02-03 14h40.06.863954 -0500
1e-06,-1,8,110,40,1,left,0.46639995800796896,None,1,40,110,50,99.07117383310106,,,,99.06529579206835,99.66460575000383,100.14630575000774,left,0.46639995800796896,None,demo,001,2025-02-03_14h39.59.865,contrast_sensitivity,2024.2.4,None,2025-02-03 14h40.06.863954 -0500
0.01,-1,8,111,41,1,left,0.43360620795283467,None,1,41,111,53,100.16018925001845,,,,100.1486575420713,100.7433803,101.18094645801466,left,0.43360620795283467,None,demo,001,2025-02-03_14h39.59.865,contrast_sensitivity,2024.2.4,None,2025-02-03 14h40.06.863954 -0500
0.0001,1,8,112,42,1,left,0.4050054580438882,None,1,42,112,44,101.19246033299714,,,,101.1822817500215,101.77692870807368,102.19602250005119,left,0.4050054580438882,None,demo,001,2025-02-03_14h39.59.865,contrast_sensitivity,2024.2.4,None,2025-02-03 14h40.06.863954 -0500
1e-08,-1,4,113,43,1,left,0.536491833,None,1,43,113,35,102.20412675000262,,,,102.19809829210863,102.79343054210767,103.33246383303776,left,0.536491833,None,demo,001,2025-02-03_14h39.59.865,contrast_sensitivity,2024.2.4,None,2025-02-03 14h40.06.863954 -0500
0.01,1,1,114,44,1,left,0.5599645000183955,None,1,44,114,4,103.34339916706085,,,,103.33469629206229,103.93109350011218,104.49552737502381,left,0.5599645000183955,None,demo,001,2025-02-03_14h39.59.865,contrast_sensitivity,2024.2.4,None,2025-02-03 14h40.06.863954 -0500
0.01,1,2,115,45,1,right,0.21749595797155052,None,1,45,115,18,104.50469462503679,,,,104.49801404203754,105.09337637503631,105.31724708306137,right,0.21749595797155052,None,demo,001,2025-02-03_14h39.59.865,contrast_sensitivity,2024.2.4,None,2025-02-03 14h40.06.863954 -0500
1e-08,-1,1,116,46,1,right,0.4433417919790372,None,1,46,116,7,105.32640474999789,,,,105.3195528750075,105.91353412508033,106.36086829204578,right,0.4433417919790372,None,demo,001,2025-02-03_14h39.59.865,contrast_sensitivity,2024.2.4,None,2025-02-03 14h40.06.863954 -0500
1e-06,1,4,117,47,1,left,0.24487120797857642,None,1,47,117,29,106.36633795802481,,,,106.36228691705037,106.95999220805243,107.2124286670005,left,0.24487120797857642,None,demo,001,2025-02-03_14h39.59.865,contrast_sensitivity,2024.2.4,None,2025-02-03 14h40.06.863954 -0500
0.1,-1,1,118,48,1,left,0.36659195797983557,None,1,48,118,12,107.22133204201236,,,,107.21445208310615,107.81018829206005,108.1792940000305,left,0.36659195797983557,None,demo,001,2025-02-03_14h39.59.865,contrast_sensitivity,2024.2.4,None,2025-02-03 14h40.06.863954 -0500
1e-08,1,8,119,49,1,left,0.3951569579076022,None,1,49,119,42,108.1883658330189,,,,108.18144162499812,108.7767744580051,109.17914925003424,left,0.3951569579076022,None,demo,001,2025-02-03_14h39.59.865,contrast_sensitivity,2024.2.4,None,2025-02-03 14h40.06.863954 -0500
0.001,-1,16,120,50,1,left,0.9769710409455001,None,1,50,120,66,109.19342229200993,,,,109.18085862509906,109.77690929209348,110.76236941700336,left,0.9769710409455001,None,demo,001,2025-02-03_14h39.59.865,contrast_sensitivity,2024.2.4,None,2025-02-03 14h40.06.863954 -0500
1,1,1,121,51,1,right,0.2959157490404323,None,1,51,121,6,110.77064450003672,,,,110.76487845811062,111.37703837500885,111.67956104211044,right,0.2959157490404323,None,demo,001,2025-02-03_14h39.59.865,contrast_sensitivity,2024.2.4,None,2025-02-03 14h40.06.863954 -0500
0.001,-1,8,122,52,1,left,0.35894445795565844,None,1,52,122,52,111.6879268,,,,111.68201099999715,112.29386587510817,112.66270425007679,left,0.35894445795565844,None,demo,001,2025-02-03_14h39.59.865,contrast_sensitivity,2024.2.4,None,2025-02-03 14h40.06.863954 -0500
0.1,1,16,123,53,1,right,0.26309887506067753,None,1,53,123,61,112.67014662502334,,,,112.66500062507112,113.2646520830458,113.53309812501539,right,0.26309887506067753,None,demo,001,2025-02-03_14h39.59.865,contrast_sensitivity,2024.2.4,None,2025-02-03 14h40.06.863954 -0500
0.001,1,8,124,54,1,right,0.3455364169785753,None,1,54,124,45,113.54312795808073,,,,113.53536608302966,114.1291401250055,114.47745691705495,right,0.3455364169785753,None,demo,001,2025-02-03_14h39.59.865,contrast_sensitivity,2024.2.4,None,2025-02-03 14h40.06.863954 -0500
1e-08,1,4,125,55,1,left,0.3773560409899801,None,1,55,125,28,114.48281958303414,,,,114.47884495800827,115.07628725003451,115.46242050000001,left,0.3773560409899801,None,demo,001,2025-02-03_14h39.59.865,contrast_sensitivity,2024.2.4,None,2025-02-03 14h40.06.863954 -0500
0.0001,1,4,126,56,1,left,0.40464125003200024,None,1,56,126,30,115.4710833330173,,,,115.46480979199987,116.06014966708608,116.46643625001889,left,0.40464125003200024,None,demo,001,2025-02-03_14h39.59.865,contrast_sensitivity,2024.2.4,None,2025-02-03 14h40.06.863954 -0500
1,-1,1,127,57,1,left,0.16070633300114423,None,1,57,127,13,116.47659233305603,,,,116.4687656670576,117.06493766710628,117.2296922079986,left,0.16070633300114423,None,demo,001,2025-02-03_14h39.59.865,contrast_sensitivity,2024.2.4,None,2025-02-03 14h40.06.863954 -0500
0.01,1,16,128,58,1,left,0.4269959160592407,None,1,58,128,60,117.23762287502177,,,,117.23217262502294,117.82670000009239,118.26188495801762,left,0.4269959160592407,None,demo,001,2025-02-03_14h39.59.865,contrast_sensitivity,2024.2.4,None,2025-02-03 14h40.06.863954 -0500
1e-08,-1,8,129,59,1,left,0.6934458749601617,None,1,59,129,49,118.27027995802928,,,,118.26379333308432,118.86021245806478,119.56274083303288,left,0.6934458749601617,None,demo,001,2025-02-03_14h39.59.865,contrast_sensitivity,2024.2.4,None,2025-02-03 14h40.06.863954 -0500
0.0001,-1,16,130,60,1,right,0.8805393750080839,None,1,60,130,65,119.57097837503534,,,,119.56508966709953,120.16003379202448,121.04558608308434,right,0.8805393750080839,None,demo,001,2025-02-03_14h39.59.865,contrast_sensitivity,2024.2.4,None,2025-02-03 14h40.06.863954 -0500
1e-08,-1,16,131,61,1,left,0.30796558293513954,None,1,61,131,63,121.05420295801014,,,,121.04762162500992,121.6434840420261,121.96283841703553,left,0.30796558293513954,None,demo,001,2025-02-03_14h39.59.865,contrast_sensitivity,2024.2.4,None,2025-02-03 14h40.06.863954 -0500
0.1,-1,16,132,62,1,left,0.18236970796715468,None,1,62,132,68,121.97139466705266,,,,121.96489791700151,122.55910883308388,122.74515829200391,left,0.18236970796715468,None,demo,001,2025-02-03_14h39.59.865,contrast_sensitivity,2024.2.4,None,2025-02-03 14h40.06.863954 -0500
1,1,2,133,63,1,right,0.029354375088587403,None,1,63,133,20,122.7507313330425,,,,122.7465617,123.34319866704755,123.37838079209905,right,0.029354375088587403,None,demo,001,2025-02-03_14h39.59.865,contrast_sensitivity,2024.2.4,None,2025-02-03 14h40.06.863954 -0500
1e-06,-1,1,134,64,1,right,0.44571158301550895,None,1,64,134,8,123.38640212500468,,,,123.38043925003149,123.97670454205945,124.43259183305781,right,0.44571158301550895,None,demo,001,2025-02-03_14h39.59.865,contrast_sensitivity,2024.2.4,None,2025-02-03 14h40.06.863954 -0500
1e-06,1,16,135,65,1,left,0.32027916598599404,None,1,65,135,57,124.44334354205057,,,,124.43411966704298,125.03124654199928,125.36266437510494,left,0.32027916598599404,None,demo,001,2025-02-03_14h39.59.865,contrast_sensitivity,2024.2.4,None,2025-02-03 14h40.06.863954 -0500
1e-06,-1,4,136,66,1,left,0.4261685829842463,None,1,66,136,36,125.37675883306656,,,,125.3649395829998,125.95927037508227,126.39573629200459,left,0.4261685829842463,None,demo,001,2025-02-03_14h39.59.865,contrast_sensitivity,2024.2.4,None,2025-02-03 14h40.06.863954 -0500
0.0001,-1,1,137,67,1,right,0.22184249910060316,None,1,67,137,9,126.40476537507493,,,,126.39775783300865,126.99348729208577,127.2289175830083,right,0.22184249910060316,None,demo,001,2025-02-03_14h39.59.865,contrast_sensitivity,2024.2.4,None,2025-02-03 14h40.06.863954 -0500
0.01,-1,4,138,68,1,left,0.29465254105161875,None,1,68,138,39,127.23752579209395,,,,127.23139245808125,127.82679449999705,128.1290493750712,left,0.29465254105161875,None,demo,001,2025-02-03_14h39.59.865,contrast_sensitivity,2024.2.4,None,2025-02-03 14h40.06.863954 -0500
0.0001,-1,8,139,69,1,left,0.14000924990978092,None,1,69,139,51,128.13528979208786,,,,128.13102829200216,128.7264009170467,128.87932183302473,left,0.14000924990978092,None,demo,001,2025-02-03_14h39.59.865,contrast_sensitivity,2024.2.4,None,2025-02-03 14h40.06.863954 -0500
0.1,-1,16,140,0,2,left,0.1274249169509858,None,2,0,140,68,128.89359704207163,,,,128.88165975001175,129.47700400010217,129.6128052920103,left,0.1274249169509858,None,demo,001,2025-02-03_14h39.59.865,contrast_sensitivity,2024.2.4,None,2025-02-03 14h40.06.863954 -0500
0.0001,-1,2,141,1,2,left,0.35315824998542666,None,2,1,141,23,129.62151629209984,,,,129.61501845810562,130.2100798750762,130.56489941710606,left,0.35315824998542666,None,demo,001,2025-02-03_14h39.59.865,contrast_sensitivity,2024.2.4,None,2025-02-03 14h40.06.863954 -0500
1e-06,1,4,142,2,2,right,0.27913595805875957,None,2,2,142,29,130.5756710000569,,,,130.5663496250054,131.16312512510922,131.44409900007304,right,0.27913595805875957,None,demo,001,2025-02-03_14h39.59.865,contrast_sensitivity,2024.2.4,None,2025-02-03 14h40.06.863954 -0500
1e-08,-1,8,143,3,2,left,0.23580349900294095,None,2,3,143,49,131.45123395801056,,,,131.44564570800867,132.04245925007854,132.28263854200486,left,0.23580349900294095,None,demo,001,2025-02-03_14h39.59.865,contrast_sensitivity,2024.2.4,None,2025-02-03 14h40.06.863954 -0500
0.0001,-1,4,144,4,2,left,0.2654458329780027,None,2,4,144,37,132.29331833310425,,,,132.2847317920532,132.88080949999858,133.1502046250971,left,0.2654458329780027,None,demo,001,2025-02-03_14h39.59.865,contrast_sensitivity,2024.2.4,None,2025-02-03 14h40.06.863954 -0500
0.001,1,16,145,5,2,left,0.4436617080355063,None,2,5,145,59,133.15984625008423,,,,133.15215808304492,133.7456271670526,134.1955165420659,left,0.4436617080355063,None,demo,001,2025-02-03_14h39.59.865,contrast_sensitivity,2024.2.4,None,2025-02-03 14h40.06.863954 -0500
0.1,-1,8,146,6,2,left,0.250672125,None,2,6,146,54,134.21019620809238,,,,134.1979847920593,134.79347575001884,135.04588466708083,left,0.250672125,None,demo,001,2025-02-03_14h39.59.865,contrast_sensitivity,2024.2.4,None,2025-02-03 14h40.06.863954 -0500
0.0001,1,4,147,7,2,right,0.7797002919251099,None,2,7,147,30,135.05995495803654,,,,135.04727537510917,135.64358050003648,136.4286207080586,right,0.7797002919251099,None,demo,001,2025-02-03_14h39.59.865,contrast_sensitivity,2024.2.4,None,2025-02-03 14h40.06.863954 -0500
1,1,1,148,8,2,right,0.3187697919784114,None,2,8,148,6,136.4360423750477,,,,136.4308125830721,137.02631529211067,137.34810679208022,right,0.3187697919784114,None,demo,001,2025-02-03_14h39.59.865,contrast_sensitivity,2024.2.4,None,2025-02-03 14h40.06.863954 -0500
0.01,-1,2,149,9,2,left,0.48757279105484486,None,2,9,149,25,137.35983508301433,,,,137.3506248750491,137.94348745804746,138.44595291709993,left,0.48757279105484486,None,demo,001,2025-02-03_14h39.59.865,contrast_sensitivity,2024.2.4,None,2025-02-03 14h40.06.863954 -0500
1e-06,1,8,150,10,2,right,0.5925642920192331,None,2,10,150,43,138.45340875000693,,,,138.44785575009882,139.04246175009757,139.64479712501634,right,0.5925642920192331,None,demo,001,2025-02-03_14h39.59.865,contrast_sensitivity,2024.2.4,None,2025-02-03 14h40.06.863954 -0500
1,-1,2,151,11,2,left,0.30193483305629343,None,2,11,151,27,139.65064754209016,,,,139.6464943330502,140.24310037505347,140.54922937508672,left,0.30193483305629343,None,demo,001,2025-02-03_14h39.59.865,contrast_sensitivity,2024.2.4,None,2025-02-03 14h40.06.863954 -0500
1e-08,1,16,152,12,2,left,0.34063729096669704,None,2,12,152,56,140.55962479207665,,,,140.5510740421014,141.14334945799783,141.49590070801787,left,0.34063729096669704,None,demo,001,2025-02-03_14h39.59.865,contrast_sensitivity,2024.2.4,None,2025-02-03 14h40.06.863954 -0500
1e-06,1,2,153,13,2,left,0.32958441600203514,None,2,13,153,15,141.5034432921093,,,,141.49815437500365,142.09343470807653,142.42878691700753,left,0.32958441600203514,None,demo,001,2025-02-03_14h39.59.865,contrast_sensitivity,2024.2.4,None,2025-02-03 14h40.06.863954 -0500
1,-1,4,154,14,2,left,0.3003201250685379,None,2,14,154,41,142.43600237509236,,,,142.43098975007888,143.02663954207674,143.3293944,left,0.3003201250685379,None,demo,001,2025-02-03_14h39.59.865,contrast_sensitivity,2024.2.4,None,2025-02-03 14h40.06.863954 -0500
1e-06,1,1,155,15,2,left,0.4234121670015156,None,2,15,155,1,143.34337979205884,,,,143.3318109170068,143.94764941709582,144.3775003750343,left,0.4234121670015156,None,demo,001,2025-02-03_14h39.59.865,contrast_sensitivity,2024.2.4,None,2025-02-03 14h40.06.863954 -0500
0.1,1,1,156,16,2,right,0.25303324998822063,None,2,16,156,5,144.38364962500054,,,,144.37898487504572,144.9779240830103,145.23331962502562,right,0.25303324998822063,None,demo,001,2025-02-03_14h39.59.865,contrast_sensitivity,2024.2.4,None,2025-02-03 14h40.06.863954 -0500
1e-08,1,8,157,17,2,left,0.8208568330155686,None,2,17,157,42,145.2430259580724,,,,145.23561883310322,145.83101625007112,146.66059308301192,left,0.8208568330155686,None,demo,001,2025-02-03_14h39.59.865,contrast_sensitivity,2024.2.4,None,2025-02-03 14h40.06.863954 -0500
1,1,2,158,18,2,right,0.15552283299621195,None,2,18,158,20,146.66594554204494,,,,146.66193295805715,147.25932004209608,147.4278753750259,right,0.15552283299621195,None,demo,001,2025-02-03_14h39.59.865,contrast_sensitivity,2024.2.4,None,2025-02-03 14h40.06.863954 -0500
1e-08,-1,2,159,19,2,right,0.6762810830259696,None,2,19,159,21,147.43326316704042,,,,147.42932891706005,148.0267219170928,148.71264545805752,right,0.6762810830259696,None,demo,001,2025-02-03_14h39.59.865,contrast_sensitivity,2024.2.4,None,2025-02-03 14h40.06.863954 -0500
1e-08,1,4,160,20,2,left,0.3384765830123797,None,2,20,160,28,148.72109583311249,,,,148.71475708310027,149.31033633300103,149.66274145804346,left,0.3384765830123797,None,demo,001,2025-02-03_14h39.59.865,contrast_sensitivity,2024.2.4,None,2025-02-03 14h40.06.863954 -0500
0.1,1,4,161,21,2,right,0.17267200001515448,None,2,21,161,33,149.6718032,,,,149.66518000001088,150.26012095808983,150.44583933299873,right,0.17267200001515448,None,demo,001,2025-02-03_14h39.59.865,contrast_sensitivity,2024.2.4,None,2025-02-03 14h40.06.863954 -0500
0.01,-1,16,162,22,2,left,0.2811854160390794,None,2,22,162,67,150.4533801251091,,,,150.44813295803033,151.04361266701017,151.32936800003517,left,0.2811854160390794,None,demo,001,2025-02-03_14h39.59.865,contrast_sensitivity,2024.2.4,None,2025-02-03 14h40.06.863954 -0500
0.01,-1,4,163,23,2,left,0.205979208,None,2,23,163,39,151.33812600001693,,,,151.33171749999747,151.92674870800693,152.14547025004867,left,0.205979208,None,demo,001,2025-02-03_14h39.59.865,contrast_sensitivity,2024.2.4,None,2025-02-03 14h40.06.863954 -0500
0.001,1,2,164,24,2,right,0.3492580410093069,None,2,24,164,17,152.15481470804662,,,,152.14781654207036,152.74351337505504,153.09610108309425,right,0.3492580410093069,None,demo,001,2025-02-03_14h39.59.865,contrast_sensitivity,2024.2.4,None,2025-02-03 14h40.06.863954 -0500
1e-06,-1,2,165,25,2,left,0.8329113750951365,None,2,25,165,22,153.10347029205877,,,,153.09835787501652,153.69375195808243,154.52904016710818,left,0.8329113750951365,None,demo,001,2025-02-03_14h39.59.865,contrast_sensitivity,2024.2.4,None,2025-02-03 14h40.06.863954 -0500
1e-08,1,2,166,26,2,left,0.8856992080109194,None,2,26,166,14,154.5375318750739,,,,154.5313117080368,155.12597912503406,156.01791895809583,left,0.8856992080109194,None,demo,001,2025-02-03_14h39.59.865,contrast_sensitivity,2024.2.4,None,2025-02-03 14h40.06.863954 -0500
0.01,1,2,167,27,2,right,0.17715204192791134,None,2,27,167,18,156.02562141709495,,,,156.01987745810766,156.6145112500526,156.79526604199782,right,0.17715204192791134,None,demo,001,2025-02-03_14h39.59.865,contrast_sensitivity,2024.2.4,None,2025-02-03 14h40.06.863954 -0500
0.01,1,16,168,28,2,right,0.5202067909995094,None,2,28,168,60,156.80387216701638,,,,156.7972970000701,157.3933827080764,157.9162465420086,right,0.5202067909995094,None,demo,001,2025-02-03_14h39.59.865,contrast_sensitivity,2024.2.4,None,2025-02-03 14h40.06.863954 -0500
1e-06,-1,8,169,29,2,left,0.37899354205001146,None,2,29,169,50,157.92630079202354,,,,157.91856408305466,158.51461137505248,158.8963549170876,left,0.37899354205001146,None,demo,001,2025-02-03_14h39.59.865,contrast_sensitivity,2024.2.4,None,2025-02-03 14h40.06.863954 -0500
1e-06,-1,4,170,30,2,left,0.1977766240015626,None,2,30,170,36,158.90368458302692,,,,158.8984374171123,159.49305325001478,159.6960387500003,left,0.1977766240015626,None,demo,001,2025-02-03_14h39.59.865,contrast_sensitivity,2024.2.4,None,2025-02-03 14h40.06.863954 -0500
0.1,-1,2,171,31,2,left,0.18618220800999552,None,2,31,171,26,159.70448070811108,,,,159.69810166710522,160.29334545810707,160.4955984581029,left,0.18618220800999552,None,demo,001,2025-02-03_14h39.59.865,contrast_sensitivity,2024.2.4,None,2025-02-03 14h40.06.863954 -0500
0.001,-1,1,172,32,2,left,0.24151254096068442,None,2,32,172,10,160.51015241700225,,,,160.49791991710663,161.0930072501069,161.34609450004064,left,0.24151254096068442,None,demo,001,2025-02-03_14h39.59.865,contrast_sensitivity,2024.2.4,None,2025-02-03 14h40.06.863954 -0500
1,1,16,173,33,2,right,0.333937875,None,2,33,173,62,161.3542196250055,,,,161.3484652080806,161.94351400004234,162.2865434170235,right,0.333937875,None,demo,001,2025-02-03_14h39.59.865,contrast_sensitivity,2024.2.4,None,2025-02-03 14h40.06.863954 -0500
1,-1,16,174,34,2,left,0.1868674160214141,None,2,34,174,69,162.2927805420477,,,,162.28797775006387,162.8786315000616,163.07783062499948,left,0.1868674160214141,None,demo,001,2025-02-03_14h39.59.865,contrast_sensitivity,2024.2.4,None,2025-02-03 14h40.06.863954 -0500
1,1,8,175,35,2,right,0.056537667056545615,None,2,35,175,48,163.08374045800883,,,,163.0792529580649,163.67591550003272,163.74424045800697,right,0.056537667056545615,None,demo,001,2025-02-03_14h39.59.865,contrast_sensitivity,2024.2.4,None,2025-02-03 14h40.06.863954 -0500
0.1,1,2,176,36,2,right,0.4416635410161689,None,2,36,176,19,163.75071404210757,,,,163.74609333300032,164.33183637505863,164.77879325009417,right,0.4416635410161689,None,demo,001,2025-02-03_14h39.59.865,contrast_sensitivity,2024.2.4,None,2025-02-03 14h40.06.863954 -0500
1e-06,-1,16,177,37,2,left,0.42171049991156906,None,2,37,177,64,164.78757675003726,,,,164.78129220800474,165.3767018330982,165.81206566700712,left,0.42171049991156906,None,demo,001,2025-02-03_14h39.59.865,contrast_sensitivity,2024.2.4,None,2025-02-03 14h40.06.863954 -0500
0.1,-1,1,178,38,2,left,0.37116212502587587,None,2,38,178,12,165.82066741702147,,,,165.81453200010583,166.41022458299994,166.79408729204442,left,0.37116212502587587,None,demo,001,2025-02-03_14h39.59.865,contrast_sensitivity,2024.2.4,None,2025-02-03 14h40.06.863954 -0500
0.01,-1,8,179,39,2,left,0.3424040829995647,None,2,39,179,53,166.8000566670671,,,,166.79546579206362,167.39710775006097,167.7456661670003,left,0.3424040829995647,None,demo,001,2025-02-03_14h39.59.865,contrast_sensitivity,2024.2.4,None,2025-02-03 14h40.06.863954 -0500
0.001,-1,16,180,40,2,left,0.3667397079989314,None,2,40,180,66,167.75260337500367,,,,167.7478231251007,168.34358295809943,168.71631329203956,left,0.3667397079989314,None,demo,001,2025-02-03_14h39.59.865,contrast_sensitivity,2024.2.4,None,2025-02-03 14h40.06.863954 -0500
0.01,1,4,181,41,2,right,0.12873162503819913,None,2,41,181,32,168.72647554206196,,,,168.7187463750597,169.3145948330639,169.44618020800408,right,0.12873162503819913,None,demo,001,2025-02-03_14h39.59.865,contrast_sensitivity,2024.2.4,None,2025-02-03 14h40.06.863954 -0500
0.1,1,8,182,42,2,right,0.078946166,None,2,42,182,47,169.45403275010176,,,,169.44852891704068,170.04339137510397,170.12848420802038,right,0.078946166,None,demo,001,2025-02-03_14h39.59.865,contrast_sensitivity,2024.2.4,None,2025-02-03 14h40.06.863954 -0500
0.001,1,4,183,43,2,right,1.017435416,None,2,43,183,31,170.13580950000323,,,,170.1301932920469,170.73086837504525,171.7616948,right,1.017435416,None,demo,001,2025-02-03_14h39.59.865,contrast_sensitivity,2024.2.4,None,2025-02-03 14h40.06.863954 -0500
0.01,1,8,184,44,2,right,0.2903577910037711,None,2,44,184,46,171.76832262508105,,,,171.76362912508193,172.35993083310314,172.66237045801245,right,0.2903577910037711,None,demo,001,2025-02-03_14h39.59.865,contrast_sensitivity,2024.2.4,None,2025-02-03 14h40.06.863954 -0500
0.0001,1,1,185,45,2,right,0.558128833,None,2,45,185,2,172.6712282920489,,,,172.66442683304194,173.26007383305114,173.82892116706353,right,0.558128833,None,demo,001,2025-02-03_14h39.59.865,contrast_sensitivity,2024.2.4,None,2025-02-03 14h40.06.863954 -0500
0.01,1,1,186,46,2,right,1.2154564160155132,None,2,46,186,4,173.83709633303806,,,,173.83079733303748,174.42677945806645,175.64556820807047,right,1.2154564160155132,None,demo,001,2025-02-03_14h39.59.865,contrast_sensitivity,2024.2.4,None,2025-02-03 14h40.06.863954 -0500
1e-08,-1,4,187,47,2,left,0.363917499,None,2,47,187,35,175.65360408311244,,,,175.64756766706705,176.24336929200217,176.61251512507442,left,0.363917499,None,demo,001,2025-02-03_14h39.59.865,contrast_sensitivity,2024.2.4,None,2025-02-03 14h40.06.863954 -0500
0.0001,1,2,188,48,2,right,2.3728587499354035,None,2,48,188,16,176.62137679208536,,,,176.61479408305604,177.2102114170557,179.59426379203796,right,2.3728587499354035,None,demo,001,2025-02-03_14h39.59.865,contrast_sensitivity,2024.2.4,None,2025-02-03 14h40.06.863954 -0500
0.0001,1,16,189,49,2,left,0.41864987497683614,None,2,49,189,58,179.60025616700295,,,,179.5958230830729,180.18141945800744,180.61276450008154,left,0.41864987497683614,None,demo,001,2025-02-03_14h39.59.865,contrast_sensitivity,2024.2.4,None,2025-02-03 14h40.06.863954 -0500
0.0001,-1,1,190,50,2,left,0.24876579106785357,None,2,50,190,9,180.6213622080395,,,,180.61512291710824,181.2133138750214,181.46608766703866,left,0.24876579106785357,None,demo,001,2025-02-03_14h39.59.865,contrast_sensitivity,2024.2.4,None,2025-02-03 14h40.06.863954 -0500
1e-08,-1,16,191,51,2,right,0.332472917,None,2,51,191,63,181.47672750009224,,,,181.46850508300122,182.06356316700112,182.39947587507777,right,0.332472917,None,demo,001,2025-02-03_14h39.59.865,contrast_sensitivity,2024.2.4,None,2025-02-03 14h40.06.863954 -0500
0.001,1,1,192,52,2,right,0.6756327080074698,None,2,52,192,3,182.4098575420212,,,,182.4015454170294,183.0013571670279,183.68275750009343,right,0.6756327080074698,None,demo,001,2025-02-03_14h39.59.865,contrast_sensitivity,2024.2.4,None,2025-02-03 14h40.06.863954 -0500
1,1,4,193,53,2,right,0.5858320409897715,None,2,53,193,34,183.69306183303706,,,,183.68505745800212,184.28127012506593,184.8796426251065,right,0.5858320409897715,None,demo,001,2025-02-03_14h39.59.865,contrast_sensitivity,2024.2.4,None,2025-02-03 14h40.06.863954 -0500
0.1,1,16,194,54,2,right,0.21629087498877198,None,2,54,194,61,184.89339133305475,,,,184.88196683302522,185.4766534580849,185.69597404205706,right,0.21629087498877198,None,demo,001,2025-02-03_14h39.59.865,contrast_sensitivity,2024.2.4,None,2025-02-03 14h40.06.863954 -0500
0.001,-1,8,195,55,2,left,0.34902333305217326,None,2,55,195,52,185.70500683307182,,,,185.69880733301397,186.29241741704755,186.64556037506554,left,0.34902333305217326,None,demo,001,2025-02-03_14h39.59.865,contrast_sensitivity,2024.2.4,None,2025-02-03 14h40.06.863954 -0500
1e-06,1,16,196,56,2,left,0.9868246660334989,None,2,56,196,57,186.6540673330892,,,,186.64763012505136,187.24302529206034,188.2427180421073,left,0.9868246660334989,None,demo,001,2025-02-03_14h39.59.865,contrast_sensitivity,2024.2.4,None,2025-02-03 14h40.06.863954 -0500
1e-08,-1,1,197,57,2,right,0.35305570799391717,None,2,57,197,7,188.2474345000228,,,,188.24440508300904,188.83187554206233,189.19464,right,0.35305570799391717,None,demo,001,2025-02-03_14h39.59.865,contrast_sensitivity,2024.2.4,None,2025-02-03 14h40.06.863954 -0500
0.01,-1,1,198,58,2,left,0.44280325004365295,None,2,58,198,11,189.20048562507145,,,,189.19598916708492,189.79413183301222,190.24559208308347,left,0.44280325004365295,None,demo,001,2025-02-03_14h39.59.865,contrast_sensitivity,2024.2.4,None,2025-02-03 14h40.06.863954 -0500
1e-06,-1,1,199,59,2,left,1.2976059159263968,None,2,59,199,8,190.25456220807973,,,,190.24787312501576,190.84330891701393,192.14600537507795,left,1.2976059159263968,None,demo,001,2025-02-03_14h39.59.865,contrast_sensitivity,2024.2.4,None,2025-02-03 14h40.06.863954 -0500
0.001,-1,2,200,60,2,left,0.3982609580270946,None,2,60,200,24,192.1599715000484,,,,192.1482745000394,192.74347004201263,193.14545537508093,left,0.3982609580270946,None,demo,001,2025-02-03_14h39.59.865,contrast_sensitivity,2024.2.4,None,2025-02-03 14h40.06.863954 -0500
0.0001,-1,8,201,61,2,left,0.4833271249663085,None,2,61,201,51,193.15911716700066,,,,193.1471989999991,193.7433618750656,194.22872516710777,left,0.4833271249663085,None,demo,001,2025-02-03_14h39.59.865,contrast_sensitivity,2024.2.4,None,2025-02-03 14h40.06.863954 -0500
1,-1,1,202,62,2,left,0.2619146670913324,None,2,62,202,13,194.24342866707593,,,,194.23023112502415,194.84379100007936,195.11210337502416,left,0.2619146670913324,None,demo,001,2025-02-03_14h39.59.865,contrast_sensitivity,2024.2.4,None,2025-02-03 14h40.06.863954 -0500
0.1,-1,4,203,63,2,left,0.32350179099012166,None,2,63,203,40,195.12067891703919,,,,195.11429541709367,195.70914862502832,196.04471133300103,left,0.32350179099012166,None,demo,001,2025-02-03_14h39.59.865,contrast_sensitivity,2024.2.4,None,2025-02-03 14h40.06.863954 -0500
0.001,-1,4,204,64,2,left,0.3821226670406759,None,2,64,204,38,196.0502767500002,,,,196.0462899580598,196.66057908302173,197.0473552920157,left,0.3821226670406759,None,demo,001,2025-02-03_14h39.59.865,contrast_sensitivity,2024.2.4,None,2025-02-03 14h40.06.863954 -0500
1e-08,1,1,205,65,2,left,0.51539875,None,2,65,205,0,197.05988237506244,,,,197.04808604205027,197.66026008303743,198.1789278,left,0.51539875,None,demo,001,2025-02-03_14h39.59.865,contrast_sensitivity,2024.2.4,None,2025-02-03 14h40.06.863954 -0500
1,-1,8,206,66,2,left,0.051815333077684045,None,2,66,206,55,198.19339429202955,,,,198.1804216670571,198.7768082920229,198.83421470806934,left,0.051815333077684045,None,demo,001,2025-02-03_14h39.59.865,contrast_sensitivity,2024.2.4,None,2025-02-03 14h40.06.863954 -0500
0.0001,1,8,207,67,2,left,0.43422016606200486,None,2,67,207,44,198.84302700008266,,,,198.83621920808218,199.4314087081002,199.87999425001908,left,0.43422016606200486,None,demo,001,2025-02-03_14h39.59.865,contrast_sensitivity,2024.2.4,None,2025-02-03 14h40.06.863954 -0500
0.001,1,8,208,68,2,right,0.6470330000156537,None,2,68,208,45,199.8933821670944,,,,199.88227183301933,200.47670262504835,201.12969112501014,right,0.6470330000156537,None,demo,001,2025-02-03_14h39.59.865,contrast_sensitivity,2024.2.4,None,2025-02-03 14h40.06.863954 -0500
0.0001,-1,16,209,69,2,left,0.32156912505161017,None,2,69,209,65,201.14336266706232,,,,201.13197175005917,201.7269742920762,202.0532831250457,left,0.32156912505161017,None,demo,001,2025-02-03_14h39.59.865,contrast_sensitivity,2024.2.4,None,2025-02-03 14h40.06.863954 -0500
0.0001,-1,8,210,0,3,left,0.25916900008451194,None,3,0,210,51,202.05940233310685,,,,202.05463216709904,202.66048112499993,202.92887762503233,left,0.25916900008451194,None,demo,001,2025-02-03_14h39.59.865,contrast_sensitivity,2024.2.4,None,2025-02-03 14h40.06.863954 -0500
0.01,1,1,211,1,3,right,0.5056299159768969,None,3,1,211,4,202.93773004203103,,,,202.93115041707642,203.52582825010177,204.04427875007968,right,0.5056299159768969,None,demo,001,2025-02-03_14h39.59.865,contrast_sensitivity,2024.2.4,None,2025-02-03 14h40.06.863954 -0500
1,1,1,212,2,3,right,0.3180203749798238,None,3,2,212,6,204.05022316705436,,,,204.04592416703235,204.64346841711085,204.96641558303963,right,0.3180203749798238,None,demo,001,2025-02-03_14h39.59.865,contrast_sensitivity,2024.2.4,None,2025-02-03 14h40.06.863954 -0500
1e-08,-1,2,213,3,3,left,0.44193166703917086,None,3,3,213,21,204.97637933306396,,,,204.96796345803887,205.56468541710638,206.01156400004402,left,0.44193166703917086,None,demo,001,2025-02-03_14h39.59.865,contrast_sensitivity,2024.2.4,None,2025-02-03 14h40.06.863954 -0500
1,-1,4,214,4,3,left,0.299352667,None,3,4,214,41,206.02671937504783,,,,206.0129862501053,206.6270636250265,206.92904841701966,left,0.299352667,None,demo,001,2025-02-03_14h39.59.865,contrast_sensitivity,2024.2.4,None,2025-02-03 14h40.06.863954 -0500
0.1,1,16,215,5,3,right,0.12076950003392994,None,3,5,215,61,206.93661158310715,,,,206.93128595803864,207.52660462504718,207.65413075010292,right,0.12076950003392994,None,demo,001,2025-02-03_14h39.59.865,contrast_sensitivity,2024.2.4,None,2025-02-03 14h40.06.863954 -0500
0.001,1,4,216,6,3,left,0.705943875,None,3,6,216,31,207.6626264170045,,,,207.65634641703218,208.2604480420705,208.97986425005365,left,0.705943875,None,demo,001,2025-02-03_14h39.59.865,contrast_sensitivity,2024.2.4,None,2025-02-03 14h40.06.863954 -0500
0.01,-1,8,217,7,3,left,0.3766955410828814,None,3,7,217,53,208.99295691703446,,,,208.9811580000678,209.57682741701137,209.9621355830459,left,0.3766955410828814,None,demo,001,2025-02-03_14h39.59.865,contrast_sensitivity,2024.2.4,None,2025-02-03 14h40.06.863954 -0500
1e-08,1,4,218,8,3,left,0.5994491250021383,None,3,8,218,28,209.97664087510202,,,,209.9646952500334,210.55989516701084,211.16250958305318,left,0.5994491250021383,None,demo,001,2025-02-03_14h39.59.865,contrast_sensitivity,2024.2.4,None,2025-02-03 14h40.06.863954 -0500
0.1,-1,16,219,9,3,left,0.9783185829874128,None,3,9,219,68,211.17117129208054,,,,211.16479320800863,211.75909195805434,212.74549945804756,left,0.9783185829874128,None,demo,001,2025-02-03_14h39.59.865,contrast_sensitivity,2024.2.4,None,2025-02-03 14h40.06.863954 -0500
0.0001,-1,1,220,10,3,left,0.45232733292505145,None,3,10,220,9,212.7525860000169,,,,212.7474361670902,213.34794433310162,213.80365237500519,left,0.45232733292505145,None,demo,001,2025-02-03_14h39.59.865,contrast_sensitivity,2024.2.4,None,2025-02-03 14h40.06.863954 -0500
0.001,1,1,221,11,3,right,0.7055348330177367,None,3,11,221,3,213.80974904203322,,,,213.8049892920535,214.39571804204024,215.11259879206773,right,0.7055348330177367,None,demo,001,2025-02-03_14h39.59.865,contrast_sensitivity,2024.2.4,None,2025-02-03 14h40.06.863954 -0500
1e-08,1,8,222,12,3,left,1.2943647920619696,None,3,12,222,42,215.12091583304573,,,,215.11455133301206,215.7099725420121,217.01186754205264,left,1.2943647920619696,None,demo,001,2025-02-03_14h39.59.865,contrast_sensitivity,2024.2.4,None,2025-02-03 14h40.06.863954 -0500
1,1,16,223,13,3,right,0.22112595802173018,None,3,13,223,62,217.02141629206017,,,,217.0139874,217.6099924580194,217.8462008330971,right,0.22112595802173018,None,demo,001,2025-02-03_14h39.59.865,contrast_sensitivity,2024.2.4,None,2025-02-03 14h40.06.863954 -0500
0.01,-1,1,224,14,3,left,1.039831707952544,None,3,14,224,11,217.8549615420634,,,,217.84880050003994,218.44330766703933,219.49594225001056,left,1.039831707952544,None,demo,001,2025-02-03_14h39.59.865,contrast_sensitivity,2024.2.4,None,2025-02-03 14h40.06.863954 -0500
0.0001,1,16,225,15,3,left,0.733750916,None,3,15,225,58,219.50402666709851,,,,219.4983409170527,220.09232420800254,220.83115879201796,left,0.733750916,None,demo,001,2025-02-03_14h39.59.865,contrast_sensitivity,2024.2.4,None,2025-02-03 14h40.06.863954 -0500
1e-08,-1,8,226,16,3,right,0.4485845830058679,None,3,16,226,49,220.84263962507248,,,,220.8332682501059,221.4264797080541,221.87911650002934,right,0.4485845830058679,None,demo,001,2025-02-03_14h39.59.865,contrast_sensitivity,2024.2.4,None,2025-02-03 14h40.06.863954 -0500
1,-1,8,227,17,3,left,0.44384008296765387,None,3,17,227,55,221.88747187505942,,,,221.88136391702574,222.48123666702304,222.92905862501357,left,0.44384008296765387,None,demo,001,2025-02-03_14h39.59.865,contrast_sensitivity,2024.2.4,None,2025-02-03 14h40.06.863954 -0500
1e-06,1,1,228,18,3,left,0.4480565410340205,None,3,18,228,1,222.9369087080704,,,,222.9315090830205,223.52696229203139,223.97951770806685,left,0.4480565410340205,None,demo,001,2025-02-03_14h39.59.865,contrast_sensitivity,2024.2.4,None,2025-02-03 14h40.06.863954 -0500
0.01,-1,4,229,19,3,left,0.7242838330566883,None,3,19,229,39,223.99332720809616,,,,223.98174704203848,224.57666370808147,225.31241287500598,left,0.7242838330566883,None,demo,001,2025-02-03_14h39.59.865,contrast_sensitivity,2024.2.4,None,2025-02-03 14h40.06.863954 -0500
0.1,1,1,230,20,3,right,0.45064195804297924,None,3,20,230,5,225.3196822500322,,,,225.31455245800316,225.9103209580062,226.36617154208943,right,0.45064195804297924,None,demo,001,2025-02-03_14h39.59.865,contrast_sensitivity,2024.2.4,None,2025-02-03 14h40.06.863954 -0500
0.0001,-1,16,231,21,3,left,0.36909170798026025,None,3,21,231,65,226.37637400010135,,,,226.3684843,226.9638785830466,227.34627708303742,left,0.36909170798026025,None,demo,001,2025-02-03_14h39.59.865,contrast_sensitivity,2024.2.4,None,2025-02-03 14h40.06.863954 -0500
1e-06,-1,4,232,22,3,left,0.5044706659391522,None,3,22,232,36,227.36001129203942,,,,227.34851195802912,227.94238020805642,228.46082191704772,left,0.5044706659391522,None,demo,001,2025-02-03_14h39.59.865,contrast_sensitivity,2024.2.4,None,2025-02-03 14h40.06.863954 -0500
1e-06,-1,16,233,23,3,left,0.20211762399412692,None,3,23,233,64,228.4657636670163,,,,228.4621999580413,229.05976275005378,229.2660129580181,left,0.20211762399412692,None,demo,001,2025-02-03_14h39.59.865,contrast_sensitivity,2024.2.4,None,2025-02-03 14h40.06.863954 -0500
0.01,1,16,234,24,3,left,0.13077449996490031,None,3,24,234,60,229.27636300004087,,,,229.26863020809833,229.8651260000188,229.99915295804385,left,0.13077449996490031,None,demo,001,2025-02-03_14h39.59.865,contrast_sensitivity,2024.2.4,None,2025-02-03 14h40.06.863954 -0500
0.1,1,4,235,25,3,right,0.2796261248877272,None,3,25,235,33,230.00977854209486,,,,230.00136766710784,230.59726679208688,230.88317479204852,right,0.2796261248877272,None,demo,001,2025-02-03_14h39.59.865,contrast_sensitivity,2024.2.4,None,2025-02-03 14h40.06.863954 -0500
1e-06,1,16,236,26,3,left,0.5490099580492824,None,3,26,236,57,230.89197054202668,,,,230.88549050001893,231.48178679205012,232.03299945802428,left,0.5490099580492824,None,demo,001,2025-02-03_14h39.59.865,contrast_sensitivity,2024.2.4,None,2025-02-03 14h40.06.863954 -0500
0.1,-1,4,237,27,3,left,0.43410474993288517,None,3,27,237,40,232.04295379202813,,,,232.03560745809227,232.63172462501097,233.07895195810124,left,0.43410474993288517,None,demo,001,2025-02-03_14h39.59.865,contrast_sensitivity,2024.2.4,None,2025-02-03 14h40.06.863954 -0500
0.001,-1,1,238,28,3,left,0.14396358304657042,None,3,28,238,10,233.08767983305734,,,,233.0808810000308,233.6768291250337,233.82898820808623,left,0.14396358304657042,None,demo,001,2025-02-03_14h39.59.865,contrast_sensitivity,2024.2.4,None,2025-02-03 14h40.06.863954 -0500
1e-06,1,2,239,29,3,left,0.3593222489580512,None,3,29,239,15,233.83688320801593,,,,233.83082525001373,234.42658712505363,234.79465091705788,left,0.3593222489580512,None,demo,001,2025-02-03_14h39.59.865,contrast_sensitivity,2024.2.4,None,2025-02-03 14h40.06.863954 -0500
0.01,-1,16,240,30,3,left,0.2935787079622969,None,3,30,240,67,234.80145200004335,,,,234.79664841701742,235.39328583306633,235.69636366702616,left,0.2935787079622969,None,demo,001,2025-02-03_14h39.59.865,contrast_sensitivity,2024.2.4,None,2025-02-03 14h40.06.863954 -0500
0.0001,1,4,241,31,3,left,0.3283391669392586,None,3,31,241,30,235.7099860419985,,,,235.6984745,236.29236258310266,236.62856516707689,left,0.3283391669392586,None,demo,001,2025-02-03_14h39.59.865,contrast_sensitivity,2024.2.4,None,2025-02-03 14h40.06.863954 -0500
1e-08,-1,1,242,32,3,right,0.1812204159796238,None,3,32,242,7,236.63466033304576,,,,236.63051895808894,237.22648133302573,237.41193479206413,right,0.1812204159796238,None,demo,001,2025-02-03_14h39.59.865,contrast_sensitivity,2024.2.4,None,2025-02-03 14h40.06.863954 -0500
0.01,1,4,243,33,3,right,0.36661895795259625,None,3,33,243,32,237.42086345807184,,,,237.41440454206895,238.02701883309055,238.40091675007716,right,0.36661895795259625,None,demo,001,2025-02-03_14h39.59.865,contrast_sensitivity,2024.2.4,None,2025-02-03 14h40.06.863954 -0500
1,-1,2,244,34,3,left,0.14228824991732836,None,3,34,244,27,238.40970729209948,,,,238.40230916708242,239.00139825011138,239.1484070000006,left,0.14228824991732836,None,demo,001,2025-02-03_14h39.59.865,contrast_sensitivity,2024.2.4,None,2025-02-03 14h40.06.863954 -0500
1e-08,-1,16,245,35,3,left,0.2533896251115948,None,3,35,245,63,239.15951204206795,,,,239.1497700830223,239.7432267080294,239.99916437501088,left,0.2533896251115948,None,demo,001,2025-02-03_14h39.59.865,contrast_sensitivity,2024.2.4,None,2025-02-03 14h40.06.863954 -0500
0.001,1,8,246,36,3,right,0.31339779193513095,None,3,36,246,45,240.00987066701055,,,,240.0013718,240.6103769580368,240.9291742920177,right,0.31339779193513095,None,demo,001,2025-02-03_14h39.59.865,contrast_sensitivity,2024.2.4,None,2025-02-03 14h40.06.863954 -0500
1e-08,-1,4,247,37,3,right,0.32557166600599885,None,3,37,247,35,240.9433216250036,,,,240.93157587503083,241.5440400420921,241.8792179170996,right,0.32557166600599885,None,demo,001,2025-02-03_14h39.59.865,contrast_sensitivity,2024.2.4,None,2025-02-03 14h40.06.863954 -0500
0.001,-1,16,248,38,3,left,0.24596941599156708,None,3,38,248,66,241.88707975007128,,,,241.88138212508056,242.4936515830923,242.74547754204832,left,0.24596941599156708,None,demo,001,2025-02-03_14h39.59.865,contrast_sensitivity,2024.2.4,None,2025-02-03 14h40.06.863954 -0500
1e-06,1,8,249,39,3,right,0.46871737495530397,None,3,39,249,43,242.75990633305628,,,,242.74774658307433,243.34378991706762,243.81395558302756,right,0.46871737495530397,None,demo,001,2025-02-03_14h39.59.865,contrast_sensitivity,2024.2.4,None,2025-02-03 14h40.06.863954 -0500
0.1,-1,8,250,40,3,left,0.37793758301995695,None,3,40,250,54,243.8256584,,,,243.81529383303132,244.41282029205468,244.79832883307245,left,0.37793758301995695,None,demo,001,2025-02-03_14h39.59.865,contrast_sensitivity,2024.2.4,None,2025-02-03 14h40.06.863954 -0500
1e-06,1,4,251,41,3,left,0.40921945800073445,None,3,41,251,29,244.80976016703062,,,,244.79986283311155,245.39339879201725,245.8123495420441,left,0.40921945800073445,None,demo,001,2025-02-03_14h39.59.865,contrast_sensitivity,2024.2.4,None,2025-02-03 14h40.06.863954 -0500
0.0001,-1,2,252,42,3,left,0.2670034581096843,None,3,42,252,23,245.82667070801836,,,,245.81456954206806,246.4144305420341,246.69592904206365,left,0.2670034581096843,None,demo,001,2025-02-03_14h39.59.865,contrast_sensitivity,2024.2.4,None,2025-02-03 14h40.06.863954 -0500
0.0001,1,2,253,43,3,right,0.4021672080270946,None,3,43,253,16,246.70345341705251,,,,246.69821108307224,247.29327270807698,247.69904841703828,right,0.4021672080270946,None,demo,001,2025-02-03_14h39.59.865,contrast_sensitivity,2024.2.4,None,2025-02-03 14h40.06.863954 -0500
0.0001,1,1,254,44,3,right,0.43314941599965096,None,3,44,254,2,247.70965312502813,,,,247.7007085001096,248.3102467500139,248.74898633302655,right,0.43314941599965096,None,demo,001,2025-02-03_14h39.59.865,contrast_sensitivity,2024.2.4,None,2025-02-03 14h40.06.863954 -0500
0.1,1,2,255,45,3,right,0.14211170794442296,None,3,45,255,19,248.758969,,,,248.75055541703478,249.34328291704878,249.4958126670681,right,0.14211170794442296,None,demo,001,2025-02-03_14h39.59.865,contrast_sensitivity,2024.2.4,None,2025-02-03 14h40.06.863954 -0500
0.01,-1,2,256,46,3,left,0.26605908293277025,None,3,46,256,25,249.50381808308885,,,,249.49815941706765,250.09334133309312,250.36260375007987,left,0.26605908293277025,None,demo,001,2025-02-03_14h39.59.865,contrast_sensitivity,2024.2.4,None,2025-02-03 14h40.06.863954 -0500
0.001,-1,8,257,47,3,left,0.20519833301659673,None,3,47,257,52,250.37014808307867,,,,250.3649018330034,250.9771538,251.19485654204618,left,0.20519833301659673,None,demo,001,2025-02-03_14h39.59.865,contrast_sensitivity,2024.2.4,None,2025-02-03 14h40.06.863954 -0500
0.001,-1,4,258,48,3,left,0.4869879169855267,None,3,48,258,38,251.20304895809386,,,,251.1968249580823,251.79231537505984,252.29488762503024,left,0.4869879169855267,None,demo,001,2025-02-03_14h39.59.865,contrast_sensitivity,2024.2.4,None,2025-02-03 14h40.06.863954 -0500
1,1,4,259,49,3,right,0.3648551249643788,None,3,49,259,34,252.30266729206778,,,,252.29683016706258,252.8934571670834,253.26260983303655,right,0.3648551249643788,None,demo,001,2025-02-03_14h39.59.865,contrast_sensitivity,2024.2.4,None,2025-02-03 14h40.06.863954 -0500
0.001,1,16,260,50,3,right,0.5703693740069866,None,3,50,260,59,253.27119620807935,,,,253.26531479205005,253.8598719,254.43305204203352,right,0.5703693740069866,None,demo,001,2025-02-03_14h39.59.865,contrast_sensitivity,2024.2.4,None,2025-02-03 14h40.06.863954 -0500
1e-08,1,16,261,51,3,left,0.490547166,None,3,51,261,56,254.44307116710115,,,,254.4350892920047,255.03075645805802,255.5288167920662,left,0.490547166,None,demo,001,2025-02-03_14h39.59.865,contrast_sensitivity,2024.2.4,None,2025-02-03 14h40.06.863954 -0500
1e-06,-1,1,262,52,3,left,0.34447204100433737,None,3,52,262,8,255.5373894580407,,,,255.53130591707304,256.1267678750446,256.4785716671031,left,0.34447204100433737,None,demo,001,2025-02-03_14h39.59.865,contrast_sensitivity,2024.2.4,None,2025-02-03 14h40.06.863954 -0500
0.001,1,2,263,53,3,right,0.781367791,None,3,53,263,17,256.48614620801527,,,,256.4812302920036,257.0768022920238,257.8625198750524,right,0.781367791,None,demo,001,2025-02-03_14h39.59.865,contrast_sensitivity,2024.2.4,None,2025-02-03 14h40.06.863954 -0500
0.001,-1,2,264,54,3,left,0.874086375,None,3,54,264,24,257.87029995804187,,,,257.86481312511023,258.46008808305487,259.34522970800754,left,0.874086375,None,demo,001,2025-02-03_14h39.59.865,contrast_sensitivity,2024.2.4,None,2025-02-03 14h40.06.863954 -0500
0.1,-1,2,265,55,3,left,0.35377354198135436,None,3,55,265,26,259.35140495805535,,,,259.34699325007387,259.9423186670756,260.31088066706434,left,0.35377354198135436,None,demo,001,2025-02-03_14h39.59.865,contrast_sensitivity,2024.2.4,None,2025-02-03 14h40.06.863954 -0500
1,1,2,266,56,3,right,0.3042419580742717,None,3,56,266,20,260.31681604206096,,,,260.31246895808727,260.89793533307966,261.21221983304713,right,0.3042419580742717,None,demo,001,2025-02-03_14h39.59.865,contrast_sensitivity,2024.2.4,None,2025-02-03 14h40.06.863954 -0500
1,1,8,267,57,3,right,0.5327730410499498,None,3,57,267,48,261.22063049999997,,,,261.2142586670816,261.8102748329984,262.34574041701853,right,0.5327730410499498,None,demo,001,2025-02-03_14h39.59.865,contrast_sensitivity,2024.2.4,None,2025-02-03 14h40.06.863954 -0500
1e-08,1,2,268,58,3,right,0.48299749894067645,None,3,58,268,14,262.35389829205815,,,,262.3479779580375,262.94271279207896,263.42910979210865,right,0.48299749894067645,None,demo,001,2025-02-03_14h39.59.865,contrast_sensitivity,2024.2.4,None,2025-02-03 14h40.06.863954 -0500
0.01,1,2,269,59,3,left,0.634349249,None,3,59,269,18,263.43754504201934,,,,263.4311650421005,264.0276924170321,264.67859829205554,left,0.634349249,None,demo,001,2025-02-03_14h39.59.865,contrast_sensitivity,2024.2.4,None,2025-02-03 14h40.06.863954 -0500
0.01,1,8,270,60,3,right,0.27725229097995907,None,3,60,270,46,264.69332925009076,,,,264.6800773330033,265.2767616250785,265.5625432920642,right,0.27725229097995907,None,demo,001,2025-02-03_14h39.59.865,contrast_sensitivity,2024.2.4,None,2025-02-03 14h40.06.863954 -0500
0.1,-1,1,271,61,3,left,0.3169526659185067,None,3,61,271,12,265.5710687080864,,,,265.5648470420856,266.1599813750945,266.4789408330107,left,0.3169526659185067,None,demo,001,2025-02-03_14h39.59.865,contrast_sensitivity,2024.2.4,None,2025-02-03 14h40.06.863954 -0500
1,-1,16,272,62,3,left,0.24335087498184294,None,3,62,272,69,266.4932583330665,,,,266.4807545420481,267.0938394170953,267.3459959580796,left,0.24335087498184294,None,demo,001,2025-02-03_14h39.59.865,contrast_sensitivity,2024.2.4,None,2025-02-03 14h40.06.863954 -0500
0.0001,-1,4,273,63,3,left,0.2425395828904584,None,3,63,273,37,267.3545850421069,,,,267.34911175002344,267.9423929580953,268.1944880830124,left,0.2425395828904584,None,demo,001,2025-02-03_14h39.59.865,contrast_sensitivity,2024.2.4,None,2025-02-03 14h40.06.863954 -0500
1e-06,-1,2,274,64,3,left,0.44903012504801154,None,3,64,274,22,268.2005622,,,,268.1960623750929,268.7938584,269.24608108308166,left,0.44903012504801154,None,demo,001,2025-02-03_14h39.59.865,contrast_sensitivity,2024.2.4,None,2025-02-03 14h40.06.863954 -0500
1e-08,1,1,275,65,3,right,0.4944828749867156,None,3,65,275,0,269.2538702,,,,269.2479985,269.8604035830358,270.36233308305964,right,0.4944828749867156,None,demo,001,2025-02-03_14h39.59.865,contrast_sensitivity,2024.2.4,None,2025-02-03 14h40.06.863954 -0500
1,-1,1,276,66,3,left,0.28297945798840374,None,3,66,276,13,270.36929616704583,,,,270.36457400000654,270.98086237499956,271.26604179199785,left,0.28297945798840374,None,demo,001,2025-02-03_14h39.59.865,contrast_sensitivity,2024.2.4,None,2025-02-03 14h40.06.863954 -0500
0.1,1,8,277,67,3,right,0.259675708,None,3,67,277,47,271.2762675000122,,,,271.2681958330795,271.86516700009815,272.12962783302646,right,0.259675708,None,demo,001,2025-02-03_14h39.59.865,contrast_sensitivity,2024.2.4,None,2025-02-03 14h40.06.863954 -0500
0.0001,1,8,278,68,3,right,0.23057824990246445,None,3,68,278,44,272.14346820802893,,,,272.1317075830884,272.74422858306207,272.9784512920305,right,0.23057824990246445,None,demo,001,2025-02-03_14h39.59.865,contrast_sensitivity,2024.2.4,None,2025-02-03 14h40.06.863954 -0500
1e-06,-1,8,279,69,3,right,0.5992017920361832,None,3,69,279,50,272.98689141706564,,,,272.98054766701534,273.57661716709845,274.17905783304013,right,0.5992017920361832,None,demo,001,2025-02-03_14h39.59.865,contrast_sensitivity,2024.2.4,None,2025-02-03 14h40.06.863954 -0500
0.01,-1,4,280,0,4,left,0.26290945801883936,None,4,0,280,39,274.1887916250853,,,,274.18120366707444,274.7769019580446,275.0462142500328,left,0.26290945801883936,None,demo,001,2025-02-03_14h39.59.865,contrast_sensitivity,2024.2.4,None,2025-02-03 14h40.06.863954 -0500
0.0001,-1,2,281,1,4,left,0.5304174580378458,None,4,1,281,23,275.0542321250541,,,,275.04859512508847,275.6423012500163,276.17765079205856,left,0.5304174580378458,None,demo,001,2025-02-03_14h39.59.865,contrast_sensitivity,2024.2.4,None,2025-02-03 14h40.06.863954 -0500
0.01,1,1,282,2,4,right,0.503190083,None,4,2,282,4,276.18361495807767,,,,276.1793789580697,276.7765188330086,277.2823509,right,0.503190083,None,demo,001,2025-02-03_14h39.59.865,contrast_sensitivity,2024.2.4,None,2025-02-03 14h40.06.863954 -0500
1,1,16,283,3,4,right,0.28090116602834314,None,4,3,283,62,277.29308975010645,,,,277.2847107920097,277.8937739171088,278.1789009170607,right,0.28090116602834314,None,demo,001,2025-02-03_14h39.59.865,contrast_sensitivity,2024.2.4,None,2025-02-03 14h40.06.863954 -0500
0.001,-1,2,284,4,4,left,0.2983170000370592,None,4,4,284,24,278.1876765830675,,,,278.18112412502524,278.77633991709445,279.0787120000459,left,0.2983170000370592,None,demo,001,2025-02-03_14h39.59.865,contrast_sensitivity,2024.2.4,None,2025-02-03 14h40.06.863954 -0500
0.0001,1,16,285,5,4,left,0.39920033304952085,None,4,5,285,58,279.08674391708337,,,,279.0806573330192,279.6765065829968,280.0784590000985,left,0.39920033304952085,None,demo,001,2025-02-03_14h39.59.865,contrast_sensitivity,2024.2.4,None,2025-02-03 14h40.06.863954 -0500
1,1,4,286,6,4,right,0.013310082955285907,None,4,6,286,34,280.0850179170957,,,,280.080708,280.67636441707145,280.6947115830844,right,0.013310082955285907,None,demo,001,2025-02-03_14h39.59.865,contrast_sensitivity,2024.2.4,None,2025-02-03 14h40.06.863954 -0500
0.01,1,16,287,7,4,right,0.42336899996735156,None,4,7,287,60,280.70995645807125,,,,280.6959792081034,281.2932358,281.72853970807046,right,0.42336899996735156,None,demo,001,2025-02-03_14h39.59.865,contrast_sensitivity,2024.2.4,None,2025-02-03 14h40.06.863954 -0500
1e-06,-1,2,288,8,4,left,0.22075858304742724,None,4,8,288,22,281.7370055420324,,,,281.7309424170526,282.3267971670721,282.5494753330713,left,0.22075858304742724,None,demo,001,2025-02-03_14h39.59.865,contrast_sensitivity,2024.2.4,None,2025-02-03 14h40.06.863954 -0500
0.0001,1,8,289,9,4,left,0.4130952500272542,None,4,9,289,44,282.5597744580591,,,,282.5519466249971,283.1477178330533,283.56564912502654,left,0.4130952500272542,None,demo,001,2025-02-03_14h39.59.865,contrast_sensitivity,2024.2.4,None,2025-02-03 14h40.06.863954 -0500
0.1,1,8,290,10,4,right,0.3483837080420926,None,4,10,290,47,283.5763626670232,,,,283.56780779210385,284.1631405000808,284.51417958305683,right,0.3483837080420926,None,demo,001,2025-02-03_14h39.59.865,contrast_sensitivity,2024.2.4,None,2025-02-03 14h40.06.863954 -0500
0.01,-1,1,291,11,4,left,0.32344220799859613,None,4,11,291,11,284.52586012508254,,,,284.5157430830877,285.1100446670316,285.4458117081085,left,0.32344220799859613,None,demo,001,2025-02-03_14h39.59.865,contrast_sensitivity,2024.2.4,None,2025-02-03 14h40.06.863954 -0500
1e-06,1,4,292,12,4,left,0.17937587504275143,None,4,12,292,29,285.4542065,,,,285.4480392920086,286.04326316702645,286.2287255000556,left,0.17937587504275143,None,demo,001,2025-02-03_14h39.59.865,contrast_sensitivity,2024.2.4,None,2025-02-03 14h40.06.863954 -0500
0.01,-1,8,293,13,4,left,0.1589804160175845,None,4,13,293,53,286.2362183750374,,,,286.23105000006035,286.82652050000615,286.99587179208174,left,0.1589804160175845,None,demo,001,2025-02-03_14h39.59.865,contrast_sensitivity,2024.2.4,None,2025-02-03 14h40.06.863954 -0500
0.0001,-1,1,294,14,4,left,0.12285687495023012,None,4,14,294,9,287.0044736251002,,,,286.99796929210424,287.5935857500881,287.71941808308475,left,0.12285687495023012,None,demo,001,2025-02-03_14h39.59.865,contrast_sensitivity,2024.2.4,None,2025-02-03 14h40.06.863954 -0500
0.001,-1,4,295,15,4,left,0.16341237490996718,None,4,15,295,38,287.72540587501135,,,,287.7208968331106,288.32716908305883,288.4960545001086,left,0.16341237490996718,None,demo,001,2025-02-03_14h39.59.865,contrast_sensitivity,2024.2.4,None,2025-02-03 14h40.06.863954 -0500
1,-1,1,296,16,4,left,0.041039,None,4,16,296,13,288.5038975,,,,288.4984633750282,289.09336175001226,289.14598554209806,left,0.041039,None,demo,001,2025-02-03_14h39.59.865,contrast_sensitivity,2024.2.4,None,2025-02-03 14h40.06.863954 -0500
0.1,-1,16,297,17,4,left,0.1368839159840718,None,4,17,297,68,289.1551058751065,,,,289.1482788330177,289.7434936250793,289.8822587080067,left,0.1368839159840718,None,demo,001,2025-02-03_14h39.59.865,contrast_sensitivity,2024.2.4,None,2025-02-03 14h40.06.863954 -0500
0.1,-1,8,298,18,4,left,0.3442975409561768,None,4,18,298,54,289.89304070803337,,,,289.8847719581099,290.481135,290.8290538750589,left,0.3442975409561768,None,demo,001,2025-02-03_14h39.59.865,contrast_sensitivity,2024.2.4,None,2025-02-03 14h40.06.863954 -0500
0.001,-1,16,299,19,4,left,0.2964069580193609,None,4,19,299,66,290.83670500002336,,,,290.8314389580628,291.44395833311137,291.74639687500894,left,0.2964069580193609,None,demo,001,2025-02-03_14h39.59.865,contrast_sensitivity,2024.2.4,None,2025-02-03 14h40.06.863954 -0500
0.0001,-1,4,300,20,4,left,0.2577309990301728,None,4,20,300,37,291.75976433302276,,,,291.74871737509966,292.3425596670713,292.61043312505353,left,0.2577309990301728,None,demo,001,2025-02-03_14h39.59.865,contrast_sensitivity,2024.2.4,None,2025-02-03 14h40.06.863954 -0500
1e-08,1,1,301,21,4,left,0.17563866602722555,None,4,21,301,0,292.6167768751038,,,,292.61207433301024,293.19868125009816,293.3785601670388,left,0.17563866602722555,None,demo,001,2025-02-03_14h39.59.865,contrast_sensitivity,2024.2.4,None,2025-02-03 14h40.06.863954 -0500
1e-08,-1,8,302,22,4,left,0.3321582080097869,None,4,22,302,49,293.3856570000062,,,,293.38074950000737,293.9771645000437,294.3121577920392,left,0.3321582080097869,None,demo,001,2025-02-03_14h39.59.865,contrast_sensitivity,2024.2.4,None,2025-02-03 14h40.06.863954 -0500
1e-06,-1,1,303,23,4,left,0.2781247500097379,None,4,23,303,8,294.3202428329969,,,,294.31403387500905,294.91016212501563,295.1945153750712,left,0.2781247500097379,None,demo,001,2025-02-03_14h39.59.865,contrast_sensitivity,2024.2.4,None,2025-02-03 14h40.06.863954 -0500
1e-08,1,2,304,24,4,left,0.3869003750151023,None,4,24,304,14,295.20062783302274,,,,295.1960670420667,295.7933380000759,296.1971364580095,left,0.3869003750151023,None,demo,001,2025-02-03_14h39.59.865,contrast_sensitivity,2024.2.4,None,2025-02-03 14h40.06.863954 -0500
0.1,1,4,305,25,4,right,0.19399916706606746,None,4,25,305,33,296.20996737503447,,,,296.1978550000349,296.7932386670727,296.99568829208147,right,0.19399916706606746,None,demo,001,2025-02-03_14h39.59.865,contrast_sensitivity,2024.2.4,None,2025-02-03 14h40.06.863954 -0500
0.001,1,16,306,26,4,right,0.2710981249110773,None,4,26,306,59,297.0042438750388,,,,296.9978162921034,297.5930931250332,297.87933175009675,right,0.2710981249110773,None,demo,001,2025-02-03_14h39.59.865,contrast_sensitivity,2024.2.4,None,2025-02-03 14h40.06.863954 -0500
1,-1,4,307,27,4,left,0.17767079104669392,None,4,27,307,41,297.88730195804965,,,,297.8816602920415,298.4766582080629,298.6621175830951,left,0.17767079104669392,None,demo,001,2025-02-03_14h39.59.865,contrast_sensitivity,2024.2.4,None,2025-02-03 14h40.06.863954 -0500
0.1,1,16,308,28,4,right,0.2623927081003785,None,4,28,308,61,298.67110683303326,,,,298.6642134580761,299.2599428750109,299.52861745806877,right,0.2623927081003785,None,demo,001,2025-02-03_14h39.59.865,contrast_sensitivity,2024.2.4,None,2025-02-03 14h40.06.863954 -0500
0.1,-1,1,309,29,4,left,0.1515019159996882,None,4,29,309,12,299.5357752080308,,,,299.5308485,300.12563350005075,300.28075741708744,left,0.1515019159996882,None,demo,001,2025-02-03_14h39.59.865,contrast_sensitivity,2024.2.4,None,2025-02-03 14h40.06.863954 -0500
1,-1,2,310,30,4,left,0.096091958,None,4,30,310,27,300.2922086670296,,,,300.2822027920047,300.87904708308633,300.97706470801495,left,0.096091958,None,demo,001,2025-02-03_14h39.59.865,contrast_sensitivity,2024.2.4,None,2025-02-03 14h40.06.863954 -0500
0.01,1,2,311,31,4,right,0.17419399903155863,None,4,31,311,18,300.98310754203703,,,,300.9784838750493,301.5650722500868,301.7450982501032,right,0.17419399903155863,None,demo,001,2025-02-03_14h39.59.865,contrast_sensitivity,2024.2.4,None,2025-02-03 14h40.06.863954 -0500
1e-08,1,4,312,32,4,left,0.41284187498968095,None,4,32,312,28,301.7598357500974,,,,301.7464299580315,302.3432731250068,302.7618360830238,left,0.41284187498968095,None,demo,001,2025-02-03_14h39.59.865,contrast_sensitivity,2024.2.4,None,2025-02-03 14h40.06.863954 -0500
1,1,1,313,33,4,right,0.23352425009943545,None,4,33,313,6,302.7682460830547,,,,302.76402008300647,303.3595922921086,303.5953809580533,right,0.23352425009943545,None,demo,001,2025-02-03_14h39.59.865,contrast_sensitivity,2024.2.4,None,2025-02-03 14h40.06.863954 -0500
0.0001,-1,16,314,34,4,left,0.38275862392038107,None,4,34,314,65,303.6035310419975,,,,303.59752866707277,304.19229916704353,304.5782989580184,left,0.38275862392038107,None,demo,001,2025-02-03_14h39.59.865,contrast_sensitivity,2024.2.4,None,2025-02-03 14h40.06.863954 -0500
0.001,-1,1,315,35,4,left,0.11487137502990663,None,4,35,315,10,304.5861605000682,,,,304.58049254200887,305.1812277920544,305.31537950003985,left,0.11487137502990663,None,demo,001,2025-02-03_14h39.59.865,contrast_sensitivity,2024.2.4,None,2025-02-03 14h40.06.863954 -0500
0.001,1,2,316,36,4,left,0.11550983297638595,None,4,36,316,17,305.3265850000316,,,,305.3173985000467,305.91057883307803,306.0290517080575,left,0.11550983297638595,None,demo,001,2025-02-03_14h39.59.865,contrast_sensitivity,2024.2.4,None,2025-02-03 14h40.06.863954 -0500
1e-08,1,8,317,37,4,left,0.3064827499911189,None,4,37,317,42,306.04333570809104,,,,306.0305389580317,306.62677425006405,306.9459596250672,left,0.3064827499911189,None,demo,001,2025-02-03_14h39.59.865,contrast_sensitivity,2024.2.4,None,2025-02-03 14h40.06.863954 -0500
0.1,-1,2,318,38,4,left,0.10474437393713742,None,4,38,318,26,306.95456700003706,,,,306.94813737506047,307.5431989580393,307.65074408310466,left,0.10474437393713742,None,demo,001,2025-02-03_14h39.59.865,contrast_sensitivity,2024.2.4,None,2025-02-03 14h40.06.863954 -0500
1,1,8,319,39,4,right,0.001171583,None,4,39,319,48,307.6587740420364,,,,307.65293850004673,308.24769200000446,308.2609388,right,0.001171583,None,demo,001,2025-02-03_14h39.59.865,contrast_sensitivity,2024.2.4,None,2025-02-03 14h40.06.863954 -0500
1e-06,-1,4,320,40,4,right,0.6917316239560023,None,4,40,320,36,308.2671590000391,,,,308.2625451670028,308.85918987507466,309.5625467,right,0.6917316239560023,None,demo,001,2025-02-03_14h39.59.865,contrast_sensitivity,2024.2.4,None,2025-02-03 14h40.06.863954 -0500
0.01,-1,2,321,41,4,left,0.43473154096864164,None,4,41,321,25,309.57112645800225,,,,309.56506741710473,310.17715641704854,310.61519433301874,left,0.43473154096864164,None,demo,001,2025-02-03_14h39.59.865,contrast_sensitivity,2024.2.4,None,2025-02-03 14h40.06.863954 -0500
0.1,1,2,322,42,4,right,0.029248915961943567,None,4,42,322,19,310.6262669170974,,,,310.6175786,311.21463858301286,311.2497078750748,right,0.029248915961943567,None,demo,001,2025-02-03_14h39.59.865,contrast_sensitivity,2024.2.4,None,2025-02-03 14h40.06.863954 -0500
1,1,2,323,43,4,right,0.17196079203858972,None,4,43,323,20,311.2586221670499,,,,311.2508664170746,311.8603211250156,312.0459412080236,right,0.17196079203858972,None,demo,001,2025-02-03_14h39.59.865,contrast_sensitivity,2024.2.4,None,2025-02-03 14h40.06.863954 -0500
0.01,1,4,324,44,4,right,0.48163087491411716,None,4,44,324,32,312.0547826,,,,312.0482263750164,312.6602126250509,313.1458086670609,right,0.48163087491411716,None,demo,001,2025-02-03_14h39.59.865,contrast_sensitivity,2024.2.4,None,2025-02-03 14h40.06.863954 -0500
0.001,1,8,325,45,4,left,0.4944064160808921,None,4,45,325,45,313.15408495801967,,,,313.1482006669976,313.7435982080642,314.245885,left,0.4944064160808921,None,demo,001,2025-02-03_14h39.59.865,contrast_sensitivity,2024.2.4,None,2025-02-03 14h40.06.863954 -0500
0.001,1,1,326,46,4,left,0.4265965409576893,None,4,46,326,3,314.2538588331081,,,,314.2483110000612,314.8431795000797,315.27902150002774,left,0.4265965409576893,None,demo,001,2025-02-03_14h39.59.865,contrast_sensitivity,2024.2.4,None,2025-02-03 14h40.06.863954 -0500
0.001,-1,8,327,47,4,left,0.19789224991109222,None,4,47,327,52,315.28741570806596,,,,315.2814879580401,315.8769388,316.07883808307815,left,0.19789224991109222,None,demo,001,2025-02-03_14h39.59.865,contrast_sensitivity,2024.2.4,None,2025-02-03 14h40.06.863954 -0500
1e-06,-1,16,328,48,4,left,0.35922941705211997,None,4,48,328,64,316.0870499170851,,,,316.08082162507344,316.6755717920605,317.0444689,left,0.35922941705211997,None,demo,001,2025-02-03_14h39.59.865,contrast_sensitivity,2024.2.4,None,2025-02-03 14h40.06.863954 -0500
0.0001,-1,8,329,49,4,left,0.2314961670199409,None,4,49,329,51,317.0503503330983,,,,317.0460914170835,317.6432261670707,317.8792825830169,left,0.2314961670199409,None,demo,001,2025-02-03_14h39.59.865,contrast_sensitivity,2024.2.4,None,2025-02-03 14h40.06.863954 -0500
0.0001,1,4,330,50,4,right,0.5297067910432816,None,4,50,330,30,317.88754158304073,,,,317.88194150000345,318.4760250420077,319.01189487508964,right,0.5297067910432816,None,demo,001,2025-02-03_14h39.59.865,contrast_sensitivity,2024.2.4,None,2025-02-03 14h40.06.863954 -0500
1,-1,16,331,51,4,left,0.3069043749710545,None,4,51,331,69,319.0206552500604,,,,319.0142552080797,319.60977995803114,319.9284930831054,left,0.3069043749710545,None,demo,001,2025-02-03_14h39.59.865,contrast_sensitivity,2024.2.4,None,2025-02-03 14h40.06.863954 -0500
1e-08,-1,16,332,52,4,left,0.4240773329511285,None,4,52,332,63,319.9377338,,,,319.9308821670711,320.5265679170843,320.9622383330716,left,0.4240773329511285,None,demo,001,2025-02-03_14h39.59.865,contrast_sensitivity,2024.2.4,None,2025-02-03 14h40.06.863954 -0500
1e-06,1,2,333,53,4,right,0.6447187080048025,None,4,53,333,15,320.97112962510437,,,,320.96439066703897,321.55987950006966,322.21201787504833,right,0.6447187080048025,None,demo,001,2025-02-03_14h39.59.865,contrast_sensitivity,2024.2.4,None,2025-02-03 14h40.06.863954 -0500
1e-06,-1,8,334,54,4,left,0.4798936250153929,None,4,54,334,50,322.2195127920713,,,,322.21414300007746,322.81069829210173,323.2955816,left,0.4798936250153929,None,demo,001,2025-02-03_14h39.59.865,contrast_sensitivity,2024.2.4,None,2025-02-03 14h40.06.863954 -0500
1e-08,-1,2,335,55,4,left,0.4804342909483239,None,4,55,335,21,323.30402204208076,,,,323.2979913750896,323.89411562506575,324.3777872080682,left,0.4804342909483239,None,demo,001,2025-02-03_14h39.59.865,contrast_sensitivity,2024.2.4,None,2025-02-03 14h40.06.863954 -0500
1,-1,8,336,56,4,left,0.23701137502212077,None,4,56,336,55,324.3829945420148,,,,324.3790764580481,324.97549750003964,325.2139198750956,left,0.23701137502212077,None,demo,001,2025-02-03_14h39.59.865,contrast_sensitivity,2024.2.4,None,2025-02-03 14h40.06.863954 -0500
0.1,-1,4,337,57,4,left,0.26791316689923406,None,4,57,337,40,325.2254607920768,,,,325.21539695805404,325.8096853750758,326.08325654210057,left,0.26791316689923406,None,demo,001,2025-02-03_14h39.59.865,contrast_sensitivity,2024.2.4,None,2025-02-03 14h40.06.863954 -0500
1e-06,1,1,338,58,4,right,0.4515614159172401,None,4,58,338,1,326.09196287509985,,,,326.0853558330564,326.6809295420535,327.1461493750103,right,0.4515614159172401,None,demo,001,2025-02-03_14h39.59.865,contrast_sensitivity,2024.2.4,None,2025-02-03 14h40.06.863954 -0500
0.0001,1,2,339,59,4,right,0.2880923330085352,None,4,59,339,16,327.15417783299927,,,,327.1485767500708,327.7603515830124,328.0542788330931,right,0.2880923330085352,None,demo,001,2025-02-03_14h39.59.865,contrast_sensitivity,2024.2.4,None,2025-02-03 14h40.06.863954 -0500
0.01,-1,16,340,60,4,left,0.24037187499925494,None,4,60,340,67,328.0631812080974,,,,328.05561987508554,328.6482894170331,328.8955687080743,left,0.24037187499925494,None,demo,001,2025-02-03_14h39.59.865,contrast_sensitivity,2024.2.4,None,2025-02-03 14h40.06.863954 -0500
0.0001,1,1,341,61,4,left,0.4512452910421416,None,4,61,341,2,328.90415695810225,,,,328.8977184580872,329.4931653330568,329.9496871250449,left,0.4512452910421416,None,demo,001,2025-02-03_14h39.59.865,contrast_sensitivity,2024.2.4,None,2025-02-03 14h40.06.863954 -0500
1e-08,-1,1,342,62,4,right,0.42778470797929913,None,4,62,342,7,329.95943920803256,,,,329.95299162506126,330.54763933306094,330.9800865,right,0.42778470797929913,None,demo,001,2025-02-03_14h39.59.865,contrast_sensitivity,2024.2.4,None,2025-02-03 14h40.06.863954 -0500
1e-08,1,16,343,63,4,right,0.32090466597583145,None,4,63,343,56,330.9931654999964,,,,330.9825697920751,331.5764700830914,331.89933675003704,right,0.32090466597583145,None,demo,001,2025-02-03_14h39.59.865,contrast_sensitivity,2024.2.4,None,2025-02-03 14h40.06.863954 -0500
1e-06,1,8,344,64,4,right,0.7440537499496713,None,4,64,344,43,331.90954804210924,,,,331.9014871250838,332.49629287503194,333.24259558308404,right,0.7440537499496713,None,demo,001,2025-02-03_14h39.59.865,contrast_sensitivity,2024.2.4,None,2025-02-03 14h40.06.863954 -0500
0.1,1,1,345,65,4,right,0.4429876250214875,None,4,65,345,5,333.24510862503666,,,,333.2431527,333.8313811670523,334.2830768750282,right,0.4429876250214875,None,demo,001,2025-02-03_14h39.59.865,contrast_sensitivity,2024.2.4,None,2025-02-03 14h40.06.863954 -0500
1e-08,-1,4,346,66,4,left,0.6378044169396162,None,4,66,346,35,334.2931845000712,,,,334.2844318751013,334.88047058309894,335.5282294580247,left,0.6378044169396162,None,demo,001,2025-02-03_14h39.59.865,contrast_sensitivity,2024.2.4,None,2025-02-03 14h40.06.863954 -0500
0.01,1,8,347,67,4,left,0.4903709579957649,None,4,67,347,46,335.53691333311144,,,,335.5303290419979,336.1268786670407,336.62922266707756,left,0.4903709579957649,None,demo,001,2025-02-03_14h39.59.865,contrast_sensitivity,2024.2.4,None,2025-02-03 14h40.06.863954 -0500
0.001,1,4,348,68,4,right,0.41558366699609905,None,4,68,348,31,336.6373783,,,,336.63152695808094,337.2436936669983,337.6614585000789,right,0.41558366699609905,None,demo,001,2025-02-03_14h39.59.865,contrast_sensitivity,2024.2.4,None,2025-02-03 14h40.06.863954 -0500
1e-06,1,16,349,69,4,left,0.9007759579690173,None,4,69,349,57,337.6776265000226,,,,337.66271554201376,338.2603995000245,339.1816584171029,left,0.9007759579690173,None,demo,001,2025-02-03_14h39.59.865,contrast_sensitivity,2024.2.4,None,2025-02-03 14h40.06.863954 -0500
0.001,1,4,350,0,5,right,0.3997247500810772,None,5,0,350,31,339.1932067919988,,,,339.1830142500112,339.7764564580284,340.1790840420872,right,0.3997247500810772,None,demo,001,2025-02-03_14h39.59.865,contrast_sensitivity,2024.2.4,None,2025-02-03 14h40.06.863954 -0500
0.0001,1,4,351,1,5,right,0.20443437399808317,None,5,1,351,30,340.18723641708493,,,,340.1813960419968,340.77570366708096,340.9942668330623,right,0.20443437399808317,None,demo,001,2025-02-03_14h39.59.865,contrast_sensitivity,2024.2.4,None,2025-02-03 14h40.06.863954 -0500
0.0001,-1,2,352,2,5,left,0.3671298329718411,None,5,2,352,23,341.0001287080813,,,,340.99570662504993,341.5929737080587,341.96572754206136,left,0.3671298329718411,None,demo,001,2025-02-03_14h39.59.865,contrast_sensitivity,2024.2.4,None,2025-02-03 14h40.06.863954 -0500
1e-06,-1,8,353,3,5,left,0.45024179108440876,None,5,3,353,50,341.9762142080581,,,,341.9676968,342.55984662508126,343.01244533306453,left,0.45024179108440876,None,demo,001,2025-02-03_14h39.59.865,contrast_sensitivity,2024.2.4,None,2025-02-03 14h40.06.863954 -0500
0.1,-1,2,354,4,5,left,0.3953146670246497,None,5,4,354,26,343.02114812505897,,,,343.0147860000143,343.60977783310227,344.01257375010755,left,0.3953146670246497,None,demo,001,2025-02-03_14h39.59.865,contrast_sensitivity,2024.2.4,None,2025-02-03 14h40.06.863954 -0500
1,-1,2,355,5,5,left,0.35024345805868506,None,5,5,355,27,344.02033062500414,,,,344.0147652,344.6158601,344.9786109171109,left,0.35024345805868506,None,demo,001,2025-02-03_14h39.59.865,contrast_sensitivity,2024.2.4,None,2025-02-03 14h40.06.863954 -0500
0.001,-1,1,356,6,5,left,0.31843070802278817,None,5,6,356,10,344.98775966709945,,,,344.9811736250995,345.5765936,345.8992834170349,left,0.31843070802278817,None,demo,001,2025-02-03_14h39.59.865,contrast_sensitivity,2024.2.4,None,2025-02-03 14h40.06.863954 -0500
1e-06,1,1,357,7,5,left,0.40286329097580165,None,5,7,357,1,345.9095020000823,,,,345.90147025010083,346.4981504169991,346.9122922500828,left,0.40286329097580165,None,demo,001,2025-02-03_14h39.59.865,contrast_sensitivity,2024.2.4,None,2025-02-03 14h40.06.863954 -0500
1,1,1,358,8,5,right,0.20007050002459437,None,5,8,358,6,346.9210116250906,,,,346.9144623330794,347.50988758308813,347.71205008309335,right,0.20007050002459437,None,demo,001,2025-02-03_14h39.59.865,contrast_sensitivity,2024.2.4,None,2025-02-03 14h40.06.863954 -0500
0.0001,-1,16,359,9,5,right,0.31605699902866036,None,5,9,359,65,347.71948583307676,,,,347.71432975004427,348.3099257500144,348.6292980000144,right,0.31605699902866036,None,demo,001,2025-02-03_14h39.59.865,contrast_sensitivity,2024.2.4,None,2025-02-03 14h40.06.863954 -0500
0.1,1,8,360,10,5,right,0.19438616710249335,None,5,10,360,47,348.6379672080511,,,,348.63135979208164,349.22555370803457,349.42740741709713,right,0.19438616710249335,None,demo,001,2025-02-03_14h39.59.865,contrast_sensitivity,2024.2.4,None,2025-02-03 14h40.06.863954 -0500
0.1,-1,8,361,11,5,left,0.2793617080897093,None,5,11,361,54,349.43398833309766,,,,349.4293184580747,350.0266032500658,350.31167587509844,left,0.2793617080897093,None,demo,001,2025-02-03_14h39.59.865,contrast_sensitivity,2024.2.4,None,2025-02-03 14h40.06.863954 -0500
0.1,1,1,362,12,5,right,0.113217291,None,5,12,362,5,350.3186969580129,,,,350.3139425420668,350.90980545803905,351.02862491703127,right,0.113217291,None,demo,001,2025-02-03_14h39.59.865,contrast_sensitivity,2024.2.4,None,2025-02-03 14h40.06.863954 -0500
0.0001,1,1,363,13,5,right,0.3457106240093708,None,5,13,363,2,351.0348062920384,,,,351.0307038750034,351.6263592920732,351.97844683309086,right,0.3457106240093708,None,demo,001,2025-02-03_14h39.59.865,contrast_sensitivity,2024.2.4,None,2025-02-03 14h40.06.863954 -0500
0.01,-1,16,364,14,5,left,0.43135912402067333,None,5,14,364,67,351.98732629208826,,,,351.98078283306677,352.57642275001854,353.01257862499915,left,0.43135912402067333,None,demo,001,2025-02-03_14h39.59.865,contrast_sensitivity,2024.2.4,None,2025-02-03 14h40.06.863954 -0500
1e-08,1,1,365,15,5,left,0.4591250830562785,None,5,15,365,0,353.02133745804895,,,,353.01486770808697,353.60976754210424,354.0773815,left,0.4591250830562785,None,demo,001,2025-02-03_14h39.59.865,contrast_sensitivity,2024.2.4,None,2025-02-03 14h40.06.863954 -0500
0.001,1,2,366,16,5,left,0.5353692489443347,None,5,16,366,17,354.08333700010553,,,,354.0786831669975,354.66541666700505,355.2124765000772,left,0.5353692489443347,None,demo,001,2025-02-03_14h39.59.865,contrast_sensitivity,2024.2.4,None,2025-02-03 14h40.06.863954 -0500
0.1,-1,4,367,17,5,left,0.2870772910537198,None,5,17,367,40,355.22065875004046,,,,355.21475270809606,355.80973829200957,356.1126751670381,left,0.2870772910537198,None,demo,001,2025-02-03_14h39.59.865,contrast_sensitivity,2024.2.4,None,2025-02-03 14h40.06.863954 -0500
1e-06,-1,16,368,18,5,right,0.38296833308413625,None,5,18,368,64,356.12647995806765,,,,356.11440308310557,356.7097667080816,357.0982635000255,right,0.38296833308413625,None,demo,001,2025-02-03_14h39.59.865,contrast_sensitivity,2024.2.4,None,2025-02-03 14h40.06.863954 -0500
1e-08,-1,4,369,19,5,left,0.41876154101919383,None,5,19,369,35,357.10875475010835,,,,357.09977100009564,357.69602291705087,358.1324265000876,left,0.41876154101919383,None,demo,001,2025-02-03_14h39.59.865,contrast_sensitivity,2024.2.4,None,2025-02-03 14h40.06.863954 -0500
0.01,1,1,370,20,5,left,0.644934083,None,5,20,370,4,358.1432833330473,,,,358.13455237506423,358.7308200420812,359.37901450006757,left,0.644934083,None,demo,001,2025-02-03_14h39.59.865,contrast_sensitivity,2024.2.4,None,2025-02-03 14h40.06.863954 -0500
0.1,1,2,371,21,5,right,0.10421029094140977,None,5,21,371,19,359.3867695000954,,,,359.38101254205685,359.9754912080243,360.0817688331008,right,0.10421029094140977,None,demo,001,2025-02-03_14h39.59.865,contrast_sensitivity,2024.2.4,None,2025-02-03 14h40.06.863954 -0500
1e-06,-1,1,372,22,5,left,0.480875208,None,5,22,372,8,360.0928546250798,,,,360.0839217080502,360.69379720801953,361.17833424999844,left,0.480875208,None,demo,001,2025-02-03_14h39.59.865,contrast_sensitivity,2024.2.4,None,2025-02-03 14h40.06.863954 -0500
0.1,1,4,373,23,5,right,0.22216316603589803,None,5,23,373,33,361.1867712500971,,,,361.18044195801485,361.77647608309053,362.0121966670267,right,0.22216316603589803,None,demo,001,2025-02-03_14h39.59.865,contrast_sensitivity,2024.2.4,None,2025-02-03 14h40.06.863954 -0500
