coherence,direction,thisN,thisTrialN,thisRepN,key_resp.keys,key_resp.rt,key_resp.duration,trials.thisRepN,trials.thisTrialN,trials.thisN,trials.thisIndex,thisRow.t,notes,begin_experiment.started,instructions.started,key_resp_2.started,begin_experiment.stopped,key_resp_2.keys,key_resp_2.rt,key_resp_2.duration,adaptation.started,polygon_adaptation.started,fixation_adaptation.started,adaptation.stopped,top_up_adaptation.started,polygon_top.started,polygon_top.stopped,fixation_top.started,fixation_top.stopped,top_up_adaptation.stopped,trial.started,polygon.started,fixation.started,dots.started,dots.stopped,key_resp.started,fixation_respond.started,polygon.stopped,fixation.stopped,trial.stopped,trials.key_resp.keys,trials.key_resp.rt,trials.key_resp.duration,participant,session,date,expName,psychopyVersion,frameRate,expStart,
,,,,,,,,,,,,,,0.008568624965846539,0.019535082974471152,0.019535082974471152,1.09614362497814,space,1.051773624960333,None,,,,,,,,,,,,,,,,,,,,,,,,523683,001,2025-03-03_23h39.52.258,motion-adaptation,2024.2.4,None,2025-03-03 23h39.58.634746 -0500,
,,,,,,,,,,,,,,,,,,,,,1.0962318329839036,1.2106282919412479,1.2106282919412479,31.103328499943018,,,,,,,,,,,,,,,,,,,,523683,001,2025-03-03_23h39.52.258,motion-adaptation,2024.2.4,None,2025-03-03 23h39.58.634746 -0500,
0.25,0,0,0,0,left,1.2112021250650287,None,0,0,0,2,31.12617670802865,,,,,,,,,,,,,31.12057037500199,31.12617670802865,31.12617670802865,31.12617670802865,31.12617670802865,31.12116075004451,31.12153954198584,31.12617670802865,31.12617670802865,31.21983504202217,31.50742470799014,31.71983891702257,31.71983891702257,31.72273120796308,31.72273120796308,32.938919791951776,left,1.2112021250650287,None,523683,001,2025-03-03_23h39.52.258,motion-adaptation,2024.2.4,None,2025-03-03 23h39.58.634746 -0500,
0.0625,180,1,1,0,left,0.6189096249872819,None,0,1,1,11,32.9681826250162,,,,,,,,,,,,,32.939192416961305,32.9681826250162,32.9681826250162,32.9681826250162,32.9681826250162,32.93983725004364,32.940237874980085,32.9681826250162,32.9681826250162,33.03643029194791,33.32227849995252,33.53659766702913,33.53659766702913,33.556917542009614,33.556917542009614,34.156965416972525,left,0.6189096249872819,None,523683,001,2025-03-03_23h39.52.258,motion-adaptation,2024.2.4,None,2025-03-03 23h39.58.634746 -0500,
1,180,2,2,0,left,0.3607976670609787,None,0,2,2,7,34.172518000006676,,,,,,,,,,,,,34.157179667032324,34.172518000006676,34.172518000006676,34.172518000006676,34.172518000006676,34.157699916977435,34.158018167014234,34.172518000006676,34.172518000006676,34.255910707986914,34.553089749999344,34.75575312494766,34.75575312494766,34.76992179197259,34.76992179197259,35.12403558299411,left,0.3607976670609787,None,523683,001,2025-03-03_23h39.52.258,motion-adaptation,2024.2.4,None,2025-03-03 23h39.58.634746 -0500,
0.03125,0,3,3,0,left,0.4012175420066342,None,0,3,3,5,35.13673337502405,,,,,,,,,,,,,35.12449029204436,35.13673337502405,35.13673337502405,35.13673337502405,35.13673337502405,35.125640957965516,35.12604045798071,35.13673337502405,35.13673337502405,35.22358733299188,35.522803875035606,35.73761020798702,35.73761020798702,35.73761020798702,35.73761020798702,36.14306100003887,left,0.4012175420066342,None,523683,001,2025-03-03_23h39.52.258,motion-adaptation,2024.2.4,None,2025-03-03 23h39.58.634746 -0500,
0.25,180,4,4,0,left,0.1792613749857992,None,0,4,4,9,36.17009795794729,,,,,,,,,,,,,36.14344237500336,36.17009795794729,41.15726879204158,36.17009795794729,41.15726879204158,41.15359250002075,41.15400658303406,41.15726879204158,41.15726879204158,41.240169542026706,41.55411579203792,41.753995417035185,41.753995417035185,41.77130374999251,41.77130374999251,41.937899917014875,left,0.1792613749857992,None,523683,001,2025-03-03_23h39.52.258,motion-adaptation,2024.2.4,None,2025-03-03 23h39.58.634746 -0500,
0.0625,0,5,5,0,left,0.3531788339605555,None,0,5,5,4,41.94415691704489,,,,,,,,,,,,,41.938130417023785,41.94415691704489,41.94415691704489,41.94415691704489,41.94415691704489,41.93890516704414,41.939224750036374,41.94415691704489,41.94415691704489,42.03646624996327,42.322034499957226,42.5419694170123,42.5419694170123,42.5419694170123,42.5419694170123,42.90322004200425,left,0.3531788339605555,None,523683,001,2025-03-03_23h39.52.258,motion-adaptation,2024.2.4,None,2025-03-03 23h39.58.634746 -0500,
0.125,0,6,6,0,left,0.3607270000502467,None,0,6,6,3,42.90624237502925,,,,,,,,,,,,,42.903327582986094,42.90624237502925,42.90624237502925,42.90624237502925,42.90624237502925,42.90362279198598,42.90377854194958,42.90624237502925,42.90624237502925,43.00403966696467,43.30421812494751,43.505310166976415,43.505310166976415,43.52160529198591,43.52160529198591,43.87129549996462,left,0.3607270000502467,None,523683,001,2025-03-03_23h39.52.258,motion-adaptation,2024.2.4,None,2025-03-03 23h39.58.634746 -0500,
1,0,7,7,0,right,0.19080687500536442,None,0,7,7,0,43.87789383297786,,,,,,,,,,,,,43.87155629193876,43.87789383297786,43.87789383297786,43.87789383297786,43.87789383297786,43.87240687501617,43.872792250011116,43.87789383297786,43.87789383297786,43.96983858302701,44.2562952080043,44.47084137494676,44.47084137494676,44.48753779195249,44.48753779195249,44.67305237497203,right,0.19080687500536442,None,523683,001,2025-03-03_23h39.52.258,motion-adaptation,2024.2.4,None,2025-03-03 23h39.58.634746 -0500,
0.5,180,8,8,0,left,0.2903112090425566,None,0,8,8,8,44.6800260420423,,,,,,,,,,,,,44.67342795804143,44.6800260420423,44.6800260420423,44.6800260420423,44.6800260420423,44.67412129195873,44.674462917027995,44.6800260420423,44.6800260420423,44.772157249972224,45.06983533303719,45.28716466703918,45.28716466703918,45.28716466703918,45.28716466703918,45.591448207967915,left,0.2903112090425566,None,523683,001,2025-03-03_23h39.52.258,motion-adaptation,2024.2.4,None,2025-03-03 23h39.58.634746 -0500,
0.03125,180,9,9,0,left,0.21947141597047448,None,0,9,9,12,45.603531208005734,,,,,,,,,,,,,45.591773416963406,45.603531208005734,50.590812333044596,45.603531208005734,50.590812333044596,50.58702158299275,50.58745466696564,50.590812333044596,50.590812333044596,50.688300624955446,50.986476792022586,51.173279125010595,51.173279125010595,51.18647695798427,51.18647695798427,51.40494104195386,left,0.21947141597047448,None,523683,001,2025-03-03_23h39.52.258,motion-adaptation,2024.2.4,None,2025-03-03 23h39.58.634746 -0500,
0.5,0,10,10,0,right,0.21309416694566607,None,0,10,10,1,51.41161645797547,,,,,,,,,,,,,51.40519658301491,51.41161645797547,51.41161645797547,51.41161645797547,51.41161645797547,51.40591712493915,51.4063375829719,51.41161645797547,51.41161645797547,51.50327887502499,51.789930999977514,52.003182417014614,52.003182417014614,52.00593108299654,52.00593108299654,52.221238374942914,right,0.21309416694566607,None,523683,001,2025-03-03_23h39.52.258,motion-adaptation,2024.2.4,None,2025-03-03 23h39.58.634746 -0500,
0.125,180,11,11,0,left,0.29276354098692536,None,0,11,11,10,52.22766125004273,,,,,,,,,,,,,52.221465624985285,52.22766125004273,52.22766125004273,52.22766125004273,52.22766125004273,52.22223412501626,52.22264625004027,52.22766125004273,52.22766125004273,52.319798124954104,52.60682620794978,52.81970662495587,52.81970662495587,52.823273792047985,52.823273792047985,53.12120708299335,left,0.29276354098692536,None,523683,001,2025-03-03_23h39.52.258,motion-adaptation,2024.2.4,None,2025-03-03 23h39.58.634746 -0500,
0,180,12,12,0,left,0.2413238330045715,None,0,12,12,13,53.126915458007716,,,,,,,,,,,,,53.12152575002983,53.126915458007716,53.126915458007716,53.126915458007716,53.126915458007716,53.1221189169446,53.12241666694172,53.126915458007716,53.126915458007716,53.219316208036616,53.50529041700065,53.71945816697553,53.71945816697553,53.72267212497536,53.72267212497536,53.97108037502039,left,0.2413238330045715,None,523683,001,2025-03-03_23h39.52.258,motion-adaptation,2024.2.4,None,2025-03-03 23h39.58.634746 -0500,
0,0,13,13,0,left,0.3004503750707954,None,0,13,13,6,53.977311832946725,,,,,,,,,,,,,53.971324083046056,53.977311832946725,53.977311832946725,53.977311832946725,53.977311832946725,53.97197758301627,53.972351207979955,53.977311832946725,53.977311832946725,54.06922108295839,54.35669508296996,54.571561707998626,54.571561707998626,54.58712670800742,54.58712670800742,54.89067704195622,left,0.3004503750707954,None,523683,001,2025-03-03_23h39.52.258,motion-adaptation,2024.2.4,None,2025-03-03 23h39.58.634746 -0500,
0.5,180,14,0,1,left,0.14997366594616324,None,1,0,14,8,54.90337850002106,,,,,,,,,,,,,54.89092987496406,54.90337850002106,59.89036091696471,54.90337850002106,59.89036091696471,59.887153708026744,59.88752591703087,59.89036091696471,59.89036091696471,59.973608291940764,60.27226220804732,60.472043541958556,60.472043541958556,60.48875587503426,60.48875587503426,60.641725667053834,left,0.14997366594616324,None,523683,001,2025-03-03_23h39.52.258,motion-adaptation,2024.2.4,None,2025-03-03 23h39.58.634746 -0500,
1,0,15,1,1,right,0.17463875003159046,None,1,1,15,0,60.653326457948424,,,,,,,,,,,,,60.64200637501199,60.653326457948424,60.653326457948424,60.653326457948424,60.653326457948424,60.64311733294744,60.64354858302977,60.653326457948424,60.653326457948424,60.740243208012544,61.05466454196721,61.23896916699596,61.23896916699596,61.23896916699596,61.23896916699596,61.421308499993756,right,0.17463875003159046,None,523683,001,2025-03-03_23h39.52.258,motion-adaptation,2024.2.4,None,2025-03-03 23h39.58.634746 -0500,
1,180,16,2,1,left,0.2135317090433091,None,1,2,16,7,61.42768254200928,,,,,,,,,,,,,61.42160441703163,61.42768254200928,61.42768254200928,61.42768254200928,61.42768254200928,61.42227487498894,61.42264141701162,61.42768254200928,61.42768254200928,61.5197997080395,61.805560417007655,62.0197779169539,62.0197779169539,62.023412083042786,62.023412083042786,62.23772595799528,left,0.2135317090433091,None,523683,001,2025-03-03_23h39.52.258,motion-adaptation,2024.2.4,None,2025-03-03 23h39.58.634746 -0500,
0.25,0,17,3,1,right,0.4019850828917697,None,1,3,17,2,62.24401620798744,,,,,,,,,,,,,62.237992667010985,62.24401620798744,62.24401620798744,62.24401620798744,62.24401620798744,62.23869000002742,62.2391062079696,62.24401620798744,62.24401620798744,62.336514582973905,62.62248699995689,62.83646250003949,62.83646250003949,62.83920737495646,62.83920737495646,63.240489374962635,right,0.4019850828917697,None,523683,001,2025-03-03_23h39.52.258,motion-adaptation,2024.2.4,None,2025-03-03 23h39.58.634746 -0500,
0,0,18,4,1,left,0.23860691604204476,None,1,4,18,6,63.253133499994874,,,,,,,,,,,,,63.24074679194018,63.253133499994874,63.253133499994874,63.253133499994874,63.253133499994874,63.241323124966584,63.24162370804697,63.253133499994874,63.253133499994874,63.34032508300152,63.65480154193938,63.85409379203338,63.85409379203338,63.85409379203338,63.85409379203338,64.10333549999632,left,0.23860691604204476,None,523683,001,2025-03-03_23h39.52.258,motion-adaptation,2024.2.4,None,2025-03-03 23h39.58.634746 -0500,
0.03125,180,19,5,1,left,0.15263224998489022,None,1,5,19,12,64.10721558297519,,,,,,,,,,,,,64.10347179195378,64.10721558297519,69.10745133296587,64.10721558297519,69.10745133296587,69.10367458302062,69.10406408295967,69.10745133296587,69.10745133296587,69.19028079195414,69.48655458295252,69.69251366704702,69.69251366704702,69.70315941702574,69.70315941702574,69.85732624994125,left,0.15263224998489022,None,523683,001,2025-03-03_23h39.52.258,motion-adaptation,2024.2.4,None,2025-03-03 23h39.58.634746 -0500,
0.125,0,20,6,1,left,0.25258404202759266,None,1,6,20,3,69.86997679201886,,,,,,,,,,,,,69.85782370797824,69.86997679201886,69.86997679201886,69.86997679201886,69.86997679201886,69.85913841694128,69.85972429194953,69.86997679201886,69.86997679201886,69.95703399996273,70.25440608302597,70.45587508298922,70.45587508298922,70.45587508298922,70.45587508298922,70.72219879203476,left,0.25258404202759266,None,523683,001,2025-03-03_23h39.52.258,motion-adaptation,2024.2.4,None,2025-03-03 23h39.58.634746 -0500,
0.125,180,21,7,1,left,0.1963365830015391,None,1,7,21,10,70.73676879203413,,,,,,,,,,,,,70.72254400001839,70.73676879203413,70.73676879203413,70.73676879203413,70.73676879203413,70.72327570803463,70.72364195797127,70.73676879203413,70.73676879203413,70.81981666700449,71.10632620798424,71.33752749999985,71.33752749999985,71.33752749999985,71.33752749999985,71.5384711669758,left,0.1963365830015391,None,523683,001,2025-03-03_23h39.52.258,motion-adaptation,2024.2.4,None,2025-03-03 23h39.58.634746 -0500,
0.0625,0,22,8,1,right,0.2721002089092508,None,1,8,22,4,71.54530216695275,,,,,,,,,,,,,71.53881508298218,71.54530216695275,71.54530216695275,71.54530216695275,71.54530216695275,71.53956545796245,71.53998408303596,71.54530216695275,71.54530216695275,71.63648983300664,71.92287050001323,72.137098666979,72.137098666979,72.14100137504283,72.14100137504283,72.42169816698879,right,0.2721002089092508,None,523683,001,2025-03-03_23h39.52.258,motion-adaptation,2024.2.4,None,2025-03-03 23h39.58.634746 -0500,
0.25,180,23,9,1,left,0.16824462509248406,None,1,9,23,9,72.42820154200308,,,,,,,,,,,,,72.42206591705326,72.42820154200308,72.42820154200308,72.42820154200308,72.42820154200308,72.42286208295263,72.42324545804877,72.42820154200308,72.42820154200308,72.51981320802588,72.8059794169385,73.03720983304083,73.03720983304083,73.03720983304083,73.03720983304083,73.22100587503519,left,0.16824462509248406,None,523683,001,2025-03-03_23h39.52.258,motion-adaptation,2024.2.4,None,2025-03-03 23h39.58.634746 -0500,
0,180,24,10,1,left,0.11365341593045741,None,1,10,24,13,73.2250081669772,,,,,,,,,,,,,73.22122954204679,73.2250081669772,78.2221650419524,73.2250081669772,78.2221650419524,78.21949091705028,78.21970324998256,78.2221650419524,78.2221650419524,78.30916516704019,78.60659312503412,78.80815345793962,78.80815345793962,78.8199458749732,78.8199458749732,78.92362637503538,left,0.11365341593045741,None,523683,001,2025-03-03_23h39.52.258,motion-adaptation,2024.2.4,None,2025-03-03 23h39.58.634746 -0500,
0.5,0,25,11,1,right,0.22903074999339879,None,1,11,25,1,78.93646487500519,,,,,,,,,,,,,78.92385695804842,78.93646487500519,78.93646487500519,78.93646487500519,78.93646487500519,78.92436037503649,78.92462870804593,78.93646487500519,78.93646487500519,79.022465041955,79.31971125002019,79.52549608296249,79.52549608296249,79.52549608296249,79.52549608296249,79.75691658305004,right,0.22903074999339879,None,523683,001,2025-03-03_23h39.52.258,motion-adaptation,2024.2.4,None,2025-03-03 23h39.58.634746 -0500,
0.0625,180,26,12,1,left,0.2594564580358565,None,1,12,26,11,79.76978429197334,,,,,,,,,,,,,79.7572064170381,79.76978429197334,79.76978429197334,79.76978429197334,79.76978429197334,79.75777608295903,79.75807520805392,79.76978429197334,79.76978429197334,79.85313104197849,80.14040308294352,80.35688154201489,80.35688154201489,80.35688154201489,80.35688154201489,80.62137824995443,left,0.2594564580358565,None,523683,001,2025-03-03_23h39.52.258,motion-adaptation,2024.2.4,None,2025-03-03 23h39.58.634746 -0500,
0.03125,0,27,13,1,left,0.28174141701310873,None,1,13,27,5,80.62857850000728,,,,,,,,,,,,,80.6216347500449,80.62857850000728,80.62857850000728,80.62857850000728,80.62857850000728,80.62229345797095,80.62270904204343,80.62857850000728,80.62857850000728,80.71981316700112,81.00630629202351,81.21978825004771,81.21978825004771,81.22343625000212,81.22343625000212,81.50455933297053,left,0.28174141701310873,None,523683,001,2025-03-03_23h39.52.258,motion-adaptation,2024.2.4,None,2025-03-03 23h39.58.634746 -0500,
0.125,180,28,0,2,left,0.3353430419228971,None,2,0,28,10,81.51239291694947,,,,,,,,,,,,,81.5049173750449,81.51239291694947,81.51239291694947,81.51239291694947,81.51239291694947,81.50639383296948,81.50709333294071,81.51239291694947,81.51239291694947,81.60319704201538,81.89130383299198,82.1031507080188,82.1031507080188,82.10585991700646,82.10585991700646,82.44282108300831,left,0.3353430419228971,None,523683,001,2025-03-03_23h39.52.258,motion-adaptation,2024.2.4,None,2025-03-03 23h39.58.634746 -0500,
0.0625,180,29,1,2,left,0.1847904589958489,None,2,1,29,11,82.45342058304232,,,,,,,,,,,,,82.44309937499929,82.45342058304232,87.44072016701102,82.45342058304232,87.44072016701102,87.4369955000002,87.43744583299849,87.44072016701102,87.44072016701102,87.5227081249468,87.81981212494429,88.03736704203766,88.03736704203766,88.0560916250106,88.0560916250106,88.22426433302462,left,0.1847904589958489,None,523683,001,2025-03-03_23h39.52.258,motion-adaptation,2024.2.4,None,2025-03-03 23h39.58.634746 -0500,
0.03125,0,30,2,2,left,0.22244949999731034,None,2,2,30,5,88.23647879203781,,,,,,,,,,,,,88.22452933294699,88.23647879203781,88.23647879203781,88.23647879203781,88.23647879203781,88.22512495797127,88.2254014579812,88.23647879203781,88.23647879203781,88.32257241697516,88.61984691699035,88.82569804193918,88.82569804193918,88.82569804193918,88.82569804193918,89.05716654204298,left,0.22244949999731034,None,523683,001,2025-03-03_23h39.52.258,motion-adaptation,2024.2.4,None,2025-03-03 23h39.58.634746 -0500,
0.25,0,31,3,2,left,0.2856432090047747,None,2,3,31,2,89.07000741700176,,,,,,,,,,,,,89.05746029200964,89.07000741700176,89.07000741700176,89.07000741700176,89.07000741700176,89.05812562501524,89.05845524999313,89.07000741700176,89.07000741700176,89.15833891695365,89.45536245801486,89.65366095805075,89.65366095805075,89.65631899994332,89.65631899994332,89.95561762503348,left,0.2856432090047747,None,523683,001,2025-03-03_23h39.52.258,motion-adaptation,2024.2.4,None,2025-03-03 23h39.58.634746 -0500,
0.125,0,32,4,2,right,0.2244085829006508,None,2,4,32,3,89.97013666701969,,,,,,,,,,,,,89.95592608302832,89.97013666701969,89.97013666701969,89.97013666701969,89.97013666701969,89.95691449998412,89.9572426249506,89.97013666701969,89.97013666701969,90.05699791701045,90.35316691698972,90.5556007080013,90.5556007080013,90.5556007080013,90.5556007080013,90.78809275000822,right,0.2244085829006508,None,523683,001,2025-03-03_23h39.52.258,motion-adaptation,2024.2.4,None,2025-03-03 23h39.58.634746 -0500,
0.5,180,33,5,2,left,0.1968252919614315,None,2,5,33,8,90.79507729201578,,,,,,,,,,,,,90.78839699993841,90.79507729201578,90.79507729201578,90.79507729201578,90.79507729201578,90.78968816704582,90.79012712498661,90.79507729201578,90.79507729201578,90.88627287501004,91.17385420796927,91.38649525004439,91.38649525004439,91.39149595797062,91.39149595797062,91.58781016699504,left,0.1968252919614315,None,523683,001,2025-03-03_23h39.52.258,motion-adaptation,2024.2.4,None,2025-03-03 23h39.58.634746 -0500,
0.03125,180,34,6,2,left,0.04413041705265641,None,2,6,34,12,91.59311116696335,,,,,,,,,,,,,91.5881117079407,91.59311116696335,96.59188800002448,91.59311116696335,96.59188800002448,96.58699729200453,96.5873704169644,96.59188800002448,96.59188800002448,96.67362470796797,96.9874902080046,97.18818187504075,97.18818187504075,97.20420133299194,97.20420133299194,97.24046316696331,left,0.04413041705265641,None,523683,001,2025-03-03_23h39.52.258,motion-adaptation,2024.2.4,None,2025-03-03 23h39.58.634746 -0500,
1,180,35,7,2,left,0.24336583307012916,None,2,7,35,7,97.25331254198682,,,,,,,,,,,,,97.24089291703422,97.25331254198682,97.25331254198682,97.25331254198682,97.25331254198682,97.24200912495144,97.24242350005079,97.25331254198682,97.25331254198682,97.34027858299669,97.6364972499432,97.8536215419881,97.8536215419881,97.8536215419881,97.8536215419881,98.10438887495548,left,0.24336583307012916,None,523683,001,2025-03-03_23h39.52.258,motion-adaptation,2024.2.4,None,2025-03-03 23h39.58.634746 -0500,
0,0,36,8,2,left,1.1195962500059977,None,2,8,36,6,98.11031908297446,,,,,,,,,,,,,98.10463441698812,98.11031908297446,98.11031908297446,98.11031908297446,98.11031908297446,98.10520074993838,98.105522167054,98.11031908297446,98.11031908297446,98.2031269170111,98.50402170803864,98.70308174996171,98.70308174996171,98.70616608299315,98.70616608299315,99.82738262496423,left,1.1195962500059977,None,523683,001,2025-03-03_23h39.52.258,motion-adaptation,2024.2.4,None,2025-03-03 23h39.58.634746 -0500,
0,180,37,9,2,left,0.2449440840864554,None,2,9,37,13,99.83648983296007,,,,,,,,,,,,,99.82769933296368,99.83648983296007,99.83648983296007,99.83648983296007,99.83648983296007,99.82845799997449,99.82884458301123,99.83648983296007,99.83648983296007,99.92266408295836,100.21978704200592,100.4220663330052,100.4220663330052,100.4220663330052,100.4220663330052,100.67134024994448,left,0.2449440840864554,None,523683,001,2025-03-03_23h39.52.258,motion-adaptation,2024.2.4,None,2025-03-03 23h39.58.634746 -0500,
0.0625,0,38,10,2,right,0.33801058295648545,None,2,10,38,4,100.67762149998453,,,,,,,,,,,,,100.67157600005157,100.67762149998453,100.67762149998453,100.67762149998453,100.67762149998453,100.67219670803752,100.67262837500311,100.67762149998453,100.67762149998453,100.76977000001352,101.05693479196634,101.26972341700457,101.26972341700457,101.27340462501161,101.27340462501161,101.6212453750195,right,0.33801058295648545,None,523683,001,2025-03-03_23h39.52.258,motion-adaptation,2024.2.4,None,2025-03-03 23h39.58.634746 -0500,
1,0,39,11,2,right,0.16291312489192933,None,2,11,39,0,101.62729924998712,,,,,,,,,,,,,101.62147066695616,101.62729924998712,106.63801954197697,101.62729924998712,106.63801954197697,106.62128637498245,106.62165954196826,106.63801954197697,106.63801954197697,106.72115304204635,107.01980050001293,107.2197972079739,107.2197972079739,107.23644274997059,107.23644274997059,107.38901033299044,right,0.16291312489192933,None,523683,001,2025-03-03_23h39.52.258,motion-adaptation,2024.2.4,None,2025-03-03 23h39.58.634746 -0500,
0.5,0,40,12,2,left,0.25190479203592986,None,2,12,40,1,107.40324541705195,,,,,,,,,,,,,107.38926070800517,107.40324541705195,107.40324541705195,107.40324541705195,107.40324541705195,107.3898399999598,107.39015383296646,107.40324541705195,107.40324541705195,107.48647895804606,107.77199312497396,108.00433637504466,108.00433637504466,108.00433637504466,108.00433637504466,108.2581602500286,left,0.25190479203592986,None,523683,001,2025-03-03_23h39.52.258,motion-adaptation,2024.2.4,None,2025-03-03 23h39.58.634746 -0500,
0.25,180,41,13,2,left,0.23206104198470712,None,2,13,41,9,108.26977145799901,,,,,,,,,,,,,108.2584289170336,108.26977145799901,108.26977145799901,108.26977145799901,108.26977145799901,108.25911404204089,108.25945908296853,108.26977145799901,108.26977145799901,108.35607033304404,108.67046824994031,108.8589520000387,108.8589520000387,108.8589520000387,108.8589520000387,109.10834879195318,left,0.23206104198470712,None,523683,001,2025-03-03_23h39.52.258,motion-adaptation,2024.2.4,None,2025-03-03 23h39.58.634746 -0500,
0.5,0,42,0,3,right,0.2446009588893503,None,3,0,42,1,109.12012183305342,,,,,,,,,,,,,109.10866895795334,109.12012183305342,109.12012183305342,109.12012183305342,109.12012183305342,109.10965133295394,109.11006537498906,109.12012183305342,109.12012183305342,109.20688095805235,109.50556795799639,109.7056283330312,109.7056283330312,109.7056283330312,109.7056283330312,109.95428737497423,right,0.2446009588893503,None,523683,001,2025-03-03_23h39.52.258,motion-adaptation,2024.2.4,None,2025-03-03 23h39.58.634746 -0500,
0,180,43,1,3,left,0.2851160840364173,None,3,1,43,13,109.96006137505174,,,,,,,,,,,,,109.95455254195258,109.96006137505174,109.96006137505174,109.96006137505174,109.96006137505174,109.95516295800917,109.95546120801009,109.96006137505174,109.96006137505174,110.05314204201568,110.33861462504137,110.55305237497669,110.55305237497669,110.55575312499423,110.55575312499423,110.84043708303943,left,0.2851160840364173,None,523683,001,2025-03-03_23h39.52.258,motion-adaptation,2024.2.4,None,2025-03-03 23h39.58.634746 -0500,
1,0,44,2,3,right,0.1664215000346303,None,3,2,44,0,110.85316604201216,,,,,,,,,,,,,110.8406790420413,110.85316604201216,115.84057274996303,110.85316604201216,115.84057274996303,115.83698504196946,115.83736008300912,115.84057274996303,115.84057274996303,115.93944308301434,116.23646154196467,116.42228195804637,116.42228195804637,116.44000541698188,116.44000541698188,116.59112308302429,right,0.1664215000346303,None,523683,001,2025-03-03_23h39.52.258,motion-adaptation,2024.2.4,None,2025-03-03 23h39.58.634746 -0500,
1,180,45,3,3,left,0.16868200001772493,None,3,3,45,7,116.60308929195162,,,,,,,,,,,,,116.59140050003771,116.60308929195162,116.60308929195162,116.60308929195162,116.60308929195162,116.59225208300631,116.59255850000773,116.60308929195162,116.60308929195162,116.6900284170406,116.98646145802923,117.18650083302055,117.18650083302055,117.19139675004408,117.19139675004408,117.37060399993788,left,0.16868200001772493,None,523683,001,2025-03-03_23h39.52.258,motion-adaptation,2024.2.4,None,2025-03-03 23h39.58.634746 -0500,
0.25,180,46,4,3,left,0.24017741705756634,None,3,4,46,9,117.37518862495199,,,,,,,,,,,,,117.37085070798639,117.37518862495199,117.37518862495199,117.37518862495199,117.37518862495199,117.37162637501024,117.3719329580199,117.37518862495199,117.37518862495199,117.46983620803803,117.75643562502228,117.96977395797148,117.96977395797148,117.97252291697077,117.97252291697077,118.2210044170497,left,0.24017741705756634,None,523683,001,2025-03-03_23h39.52.258,motion-adaptation,2024.2.4,None,2025-03-03 23h39.58.634746 -0500,
0.125,0,47,5,3,right,0.6365896670613438,None,3,5,47,3,118.22714829200413,,,,,,,,,,,,,118.2212346669985,118.22714829200413,118.22714829200413,118.22714829200413,118.22714829200413,118.22217541700229,118.2225536670303,118.22714829200413,118.22714829200413,118.31973362504505,118.60573924996424,118.81972487503663,118.81972487503663,118.8226342080161,118.8226342080161,119.45821129204705,right,0.6365896670613438,None,523683,001,2025-03-03_23h39.52.258,motion-adaptation,2024.2.4,None,2025-03-03 23h39.58.634746 -0500,
0.0625,0,48,6,3,left,0.17278900009114295,None,3,6,48,4,119.4698252499802,,,,,,,,,,,,,119.45847745798528,119.4698252499802,119.4698252499802,119.4698252499802,119.4698252499802,119.45902495796327,119.45932937494945,119.4698252499802,119.4698252499802,119.55556916701607,119.85301225003786,120.07158466696274,120.07158466696274,120.07158466696274,120.07158466696274,120.25488695804961,left,0.17278900009114295,None,523683,001,2025-03-03_23h39.52.258,motion-adaptation,2024.2.4,None,2025-03-03 23h39.58.634746 -0500,
0.5,180,49,7,3,left,0.049465542077086866,None,3,7,49,8,120.26082929200493,,,,,,,,,,,,,120.25512720795814,120.26082929200493,125.2568083750084,120.26082929200493,125.2568083750084,125.25361470796634,125.25396012503188,125.2568083750084,125.2568083750084,125.34051066695247,125.64004075003322,125.84139283304103,125.84139283304103,125.85318137495779,125.85318137495779,125.9047032080125,left,0.049465542077086866,None,523683,001,2025-03-03_23h39.52.258,motion-adaptation,2024.2.4,None,2025-03-03 23h39.58.634746 -0500,
0.03125,0,50,8,3,left,0.24319674994330853,None,3,8,50,5,125.91124841698911,,,,,,,,,,,,,125.9050400829874,125.91124841698911,125.91124841698911,125.91124841698911,125.91124841698911,125.90562674996909,125.90594879200216,125.91124841698911,125.91124841698911,126.003154624952,126.28906229196582,126.52061629202217,126.52061629202217,126.52061629202217,126.52061629202217,126.77442762500141,left,0.24319674994330853,None,523683,001,2025-03-03_23h39.52.258,motion-adaptation,2024.2.4,None,2025-03-03 23h39.58.634746 -0500,
0.03125,180,51,9,3,left,0.37863766704685986,None,3,9,51,12,126.78661741700489,,,,,,,,,,,,,126.77487295796163,126.78661741700489,126.78661741700489,126.78661741700489,126.78661741700489,126.77571908303071,126.77614700002596,126.78661741700489,126.78661741700489,126.87362433294766,127.16980358294677,127.3860614169389,127.3860614169389,127.3860614169389,127.3860614169389,127.77291691699065,left,0.37863766704685986,None,523683,001,2025-03-03_23h39.52.258,motion-adaptation,2024.2.4,None,2025-03-03 23h39.58.634746 -0500,
0,0,52,10,3,right,0.4658940830267966,None,3,10,52,6,127.78675758303143,,,,,,,,,,,,,127.77319524995983,127.78675758303143,127.78675758303143,127.78675758303143,127.78675758303143,127.77381854201667,127.77421270799823,127.78675758303143,127.78675758303143,127.87372495804448,128.17224004201125,128.37301070801914,128.37301070801914,128.37301070801914,128.37301070801914,128.8416652920423,right,0.4658940830267966,None,523683,001,2025-03-03_23h39.52.258,motion-adaptation,2024.2.4,None,2025-03-03 23h39.58.634746 -0500,
0.25,0,53,11,3,left,0.7264996659941971,None,3,11,53,2,128.85306341701653,,,,,,,,,,,,,128.84192258294206,128.85306341701653,128.85306341701653,128.85306341701653,128.85306341701653,128.84245987504255,128.84275266702753,128.85306341701653,128.85306341701653,128.94009041704703,129.23645183304325,129.44014495797455,129.44014495797455,129.44014495797455,129.44014495797455,130.17327883304097,left,0.7264996659941971,None,523683,001,2025-03-03_23h39.52.258,motion-adaptation,2024.2.4,None,2025-03-03 23h39.58.634746 -0500,
0.0625,180,54,12,3,left,0.26014045800548047,None,3,12,54,11,130.17920683301054,,,,,,,,,,,,,130.17354800004978,130.17920683301054,135.17265308299102,130.17920683301054,135.17265308299102,135.17020008293912,135.17054770805407,135.17265308299102,135.17265308299102,135.25695991702378,135.55527583300136,135.7567503330065,135.7567503330065,135.7697967919521,135.7697967919521,136.02091766695958,left,0.26014045800548047,None,523683,001,2025-03-03_23h39.52.258,motion-adaptation,2024.2.4,None,2025-03-03 23h39.58.634746 -0500,
0.125,180,55,13,3,left,0.16832937498111278,None,3,13,55,10,136.0272862080019,,,,,,,,,,,,,136.02125958295073,136.0272862080019,136.0272862080019,136.0272862080019,136.0272862080019,136.02181774994824,136.02214212494437,136.0272862080019,136.0272862080019,136.11979279201478,136.40562350000255,136.62047887500376,136.62047887500376,136.6380819999613,136.6380819999613,136.79166379198432,left,0.16832937498111278,None,523683,001,2025-03-03_23h39.52.258,motion-adaptation,2024.2.4,None,2025-03-03 23h39.58.634746 -0500,
0.03125,180,56,0,4,left,0.5695364159764722,None,4,0,56,12,136.80316091701388,,,,,,,,,,,,,136.79192774998955,136.80316091701388,136.80316091701388,136.80316091701388,136.80316091701388,136.79250229196623,136.79279004200362,136.80316091701388,136.80316091701388,136.88890483300202,137.18641866696998,137.38643291697372,137.38643291697372,137.39153487503063,137.39153487503063,137.97376325004734,left,0.5695364159764722,None,523683,001,2025-03-03_23h39.52.258,motion-adaptation,2024.2.4,None,2025-03-03 23h39.58.634746 -0500,
1,180,57,1,4,left,0.2046572919934988,None,4,1,57,7,137.98686312499922,,,,,,,,,,,,,137.97406000003684,137.98686312499922,137.98686312499922,137.98686312499922,137.98686312499922,137.97473466699012,137.97516483301297,137.98686312499922,137.98686312499922,138.0734356669709,138.369853332988,138.57281612500083,138.57281612500083,138.57281612500083,138.57281612500083,138.7879809170263,left,0.2046572919934988,None,523683,001,2025-03-03_23h39.52.258,motion-adaptation,2024.2.4,None,2025-03-03 23h39.58.634746 -0500,
0.5,180,58,2,4,left,0.285938624991104,None,4,2,58,8,138.7943002920365,,,,,,,,,,,,,138.78830729203764,138.7943002920365,138.7943002920365,138.7943002920365,138.7943002920365,138.7889011669904,138.78925287502352,138.7943002920365,138.7943002920365,138.88640208297875,139.17203908297233,139.38639816700015,139.38639816700015,139.38909054198302,139.38909054198302,139.68942395795602,left,0.285938624991104,None,523683,001,2025-03-03_23h39.52.258,motion-adaptation,2024.2.4,None,2025-03-03 23h39.58.634746 -0500,
1,0,59,3,4,right,0.06753741600550711,None,4,3,59,0,139.7033934169449,,,,,,,,,,,,,139.6896700420184,139.7033934169449,144.69051012501586,139.7033934169449,144.69051012501586,144.68685270799324,144.68723870802205,144.69051012501586,144.69051012501586,144.7734510420123,145.06973395799287,145.27300204196945,145.27300204196945,145.28644737496506,145.28644737496506,145.35483904194552,right,0.06753741600550711,None,523683,001,2025-03-03_23h39.52.258,motion-adaptation,2024.2.4,None,2025-03-03 23h39.58.634746 -0500,
0,180,60,4,4,left,0.2218097080476582,None,4,4,60,13,145.36105670803227,,,,,,,,,,,,,145.3551059999736,145.36105670803227,145.36105670803227,145.36105670803227,145.36105670803227,145.35567658301443,145.3559453750495,145.36105670803227,145.36105670803227,145.4531905830372,145.7401361670345,145.95319024997298,145.95319024997298,145.95797362504527,145.95797362504527,146.18791762494948,left,0.2218097080476582,None,523683,001,2025-03-03_23h39.52.258,motion-adaptation,2024.2.4,None,2025-03-03 23h39.58.634746 -0500,
0.03125,0,61,5,4,left,0.3905974159715697,None,4,5,61,5,146.19435229199007,,,,,,,,,,,,,146.18826583295595,146.19435229199007,146.19435229199007,146.19435229199007,146.19435229199007,146.18885216698982,146.1891660420224,146.19435229199007,146.19435229199007,146.28653275000397,146.57223191694357,146.78645341703668,146.78645341703668,146.78919779194985,146.78919779194985,147.19085250003263,left,0.3905974159715697,None,523683,001,2025-03-03_23h39.52.258,motion-adaptation,2024.2.4,None,2025-03-03 23h39.58.634746 -0500,
0.125,180,62,6,4,left,0.36133120802696794,None,4,6,62,10,147.20354812499136,,,,,,,,,,,,,147.19131441705395,147.20354812499136,147.20354812499136,147.20354812499136,147.20354812499136,147.19208491698373,147.19242529198527,147.20354812499136,147.20354812499136,147.28905541694257,147.58651799999643,147.7889927920187,147.7889927920187,147.7889927920187,147.7889927920187,148.15553041698877,left,0.36133120802696794,None,523683,001,2025-03-03_23h39.52.258,motion-adaptation,2024.2.4,None,2025-03-03 23h39.58.634746 -0500,
0.25,0,63,7,4,right,0.2747914589708671,None,4,7,63,2,148.17001658293884,,,,,,,,,,,,,148.15583729196806,148.17001658293884,148.17001658293884,148.17001658293884,148.17001658293884,148.15639983303845,148.1567013330059,148.17001658293884,148.17001658293884,148.25307516695466,148.53949604195077,148.75301716697868,148.75301716697868,148.75750245794188,148.75750245794188,149.03902787494007,right,0.2747914589708671,None,523683,001,2025-03-03_23h39.52.258,motion-adaptation,2024.2.4,None,2025-03-03 23h39.58.634746 -0500,
0.25,180,64,8,4,left,0.132007708074525,None,4,8,64,9,149.05341566703282,,,,,,,,,,,,,149.0393033749424,149.05341566703282,154.04050770797767,149.05341566703282,154.04050770797767,154.03692062501796,154.0372917080531,154.04050770797767,154.04050770797767,154.12358145799953,154.41963133297395,154.62256375001743,154.62256375001743,154.63908624998294,154.63908624998294,154.7573159999447,left,0.132007708074525,None,523683,001,2025-03-03_23h39.52.258,motion-adaptation,2024.2.4,None,2025-03-03 23h39.58.634746 -0500,
0,0,65,9,4,left,0.20289504202082753,None,4,9,65,6,154.7698152080411,,,,,,,,,,,,,154.7575965829892,154.7698152080411,154.7698152080411,154.7698152080411,154.7698152080411,154.75826712499838,154.7586522080237,154.7698152080411,154.7698152080411,154.85697358299512,155.1532465419732,155.35544620803557,155.35544620803557,155.35544620803557,155.35544620803557,155.57125704200007,left,0.20289504202082753,None,523683,001,2025-03-03_23h39.52.258,motion-adaptation,2024.2.4,None,2025-03-03 23h39.58.634746 -0500,
0.0625,0,66,10,4,right,0.3102931249886751,None,4,10,66,4,155.5761546669528,,,,,,,,,,,,,155.57149879203644,155.5761546669528,155.5761546669528,155.5761546669528,155.5761546669528,155.57203020795714,155.5723556249868,155.5761546669528,155.5761546669528,155.66951183299534,155.97136641701218,156.17099045799114,156.17099045799114,156.1876489999704,156.1876489999704,156.48796820803545,right,0.3102931249886751,None,523683,001,2025-03-03_23h39.52.258,motion-adaptation,2024.2.4,None,2025-03-03 23h39.58.634746 -0500,
0.5,0,67,11,4,left,0.4447554999496788,None,4,11,67,1,156.49425054201856,,,,,,,,,,,,,156.48822412500158,156.49425054201856,156.49425054201856,156.49425054201856,156.49425054201856,156.48889325000346,156.4892483749427,156.49425054201856,156.49425054201856,156.58641524997074,156.87217758304905,157.08746075001545,157.08746075001545,157.1038433329668,157.1038433329668,157.53792162495665,left,0.4447554999496788,None,523683,001,2025-03-03_23h39.52.258,motion-adaptation,2024.2.4,None,2025-03-03 23h39.58.634746 -0500,
0.0625,180,68,12,4,left,0.2872443749802187,None,4,12,68,11,157.54358575004153,,,,,,,,,,,,,157.53828558302484,157.54358575004153,157.54358575004153,157.54358575004153,157.54358575004153,157.5388600419974,157.539166667033,157.54358575004153,157.54358575004153,157.6363677920308,157.92217333300505,158.13586208294146,158.13586208294146,158.13900450000074,158.13900450000074,158.42508987500332,left,0.2872443749802187,None,523683,001,2025-03-03_23h39.52.258,motion-adaptation,2024.2.4,None,2025-03-03 23h39.58.634746 -0500,
0.125,0,69,13,4,right,0.7376648340141401,None,4,13,69,3,158.43642495805398,,,,,,,,,,,,,158.4253382079769,158.43642495805398,163.42305608303286,158.43642495805398,163.42305608303286,163.42027683299966,163.4206324579427,163.42305608303286,163.42305608303286,163.50692912493832,163.8062657499686,164.00628199998755,164.00628199998755,164.0199242499657,164.0199242499657,164.756143082981,right,0.7376648340141401,None,523683,001,2025-03-03_23h39.52.258,motion-adaptation,2024.2.4,None,2025-03-03 23h39.58.634746 -0500,
0.5,0,70,0,5,right,0.3179802909726277,None,5,0,70,1,164.7701566669857,,,,,,,,,,,,,164.75644587504212,164.7701566669857,164.7701566669857,164.7701566669857,164.7701566669857,164.75759204197675,164.75798841693904,164.7701566669857,164.7701566669857,164.8564388329396,165.15316233295016,165.37157579197083,165.37157579197083,165.37157579197083,165.37157579197083,165.70465766696725,right,0.3179802909726277,None,523683,001,2025-03-03_23h39.52.258,motion-adaptation,2024.2.4,None,2025-03-03 23h39.58.634746 -0500,
0.125,180,71,1,5,left,0.2980290420819074,None,5,1,71,10,165.71070958301425,,,,,,,,,,,,,165.7048682499444,165.71070958301425,165.71070958301425,165.71070958301425,165.71070958301425,165.70542675000615,165.7057855000021,165.71070958301425,165.71070958301425,165.80310725001618,166.08958441694267,166.32050899998285,166.32050899998285,166.32050899998285,166.32050899998285,166.62216962501407,left,0.2980290420819074,None,523683,001,2025-03-03_23h39.52.258,motion-adaptation,2024.2.4,None,2025-03-03 23h39.58.634746 -0500,
0.25,0,72,2,5,left,1.6693357089534402,None,5,2,72,2,166.62822237494402,,,,,,,,,,,,,166.6224279999733,166.62822237494402,166.62822237494402,166.62822237494402,166.62822237494402,166.62304754194338,166.62336666695774,166.62822237494402,166.62822237494402,166.7197050419636,167.0064518749714,167.23738845798653,167.23738845798653,167.23738845798653,167.23738845798653,168.91056049999315,left,1.6693357089534402,None,523683,001,2025-03-03_23h39.52.258,motion-adaptation,2024.2.4,None,2025-03-03 23h39.58.634746 -0500,
0.5,180,73,3,5,left,0.19527662498876452,None,5,3,73,8,168.91983883304056,,,,,,,,,,,,,168.91084916703403,168.91983883304056,168.91983883304056,168.91983883304056,168.91983883304056,168.9114617080195,168.91185150004458,168.91983883304056,168.91983883304056,169.00650358304847,169.30246937496122,169.52114399999846,169.52114399999846,169.52114399999846,169.52114399999846,169.7213050830178,left,0.19527662498876452,None,523683,001,2025-03-03_23h39.52.258,motion-adaptation,2024.2.4,None,2025-03-03 23h39.58.634746 -0500,
0,180,74,4,5,left,0.6006834160070866,None,5,4,74,13,169.72453695803415,,,,,,,,,,,,,169.72143695794512,169.72453695803415,174.72377995797433,169.72453695803415,174.72377995797433,174.72026937501505,174.72065587504767,174.72377995797433,174.72377995797433,174.8068172079511,175.10326791694388,175.3212864169618,175.3212864169618,175.33747541694902,175.33747541694902,175.93758141703438,left,0.6006834160070866,None,523683,001,2025-03-03_23h39.52.258,motion-adaptation,2024.2.4,None,2025-03-03 23h39.58.634746 -0500,
1,180,75,5,5,left,0.18059574998915195,None,5,5,75,7,175.9420664580539,,,,,,,,,,,,,175.93781929195393,175.9420664580539,175.9420664580539,175.9420664580539,175.9420664580539,175.9384502080502,175.93876120797358,175.9420664580539,175.9420664580539,176.03646158298943,176.32328337500803,176.55473695800174,176.55473695800174,176.55473695800174,176.55473695800174,176.73692633304745,left,0.18059574998915195,None,523683,001,2025-03-03_23h39.52.258,motion-adaptation,2024.2.4,None,2025-03-03 23h39.58.634746 -0500,
0.25,180,76,6,5,left,0.5764894159510732,None,5,6,76,9,176.74016000004485,,,,,,,,,,,,,176.7370410830481,176.74016000004485,176.74016000004485,176.74016000004485,176.74016000004485,176.73732058296446,176.73749520804267,176.74016000004485,176.74016000004485,176.83600224996917,177.12212508299854,177.32404233294073,177.32404233294073,177.3364792499924,177.3364792499924,177.9056521250168,left,0.5764894159510732,None,523683,001,2025-03-03_23h39.52.258,motion-adaptation,2024.2.4,None,2025-03-03 23h39.58.634746 -0500,
0.0625,0,77,7,5,left,0.42169345798902214,None,5,7,77,4,177.9195279580308,,,,,,,,,,,,,177.90595029201359,177.9195279580308,177.9195279580308,177.9195279580308,177.9195279580308,177.90666620794218,177.90701316704508,177.9195279580308,177.9195279580308,178.00670675002038,178.30462829198223,178.5204882080434,178.5204882080434,178.5204882080434,178.5204882080434,178.95556870801374,left,0.42169345798902214,None,523683,001,2025-03-03_23h39.52.258,motion-adaptation,2024.2.4,None,2025-03-03 23h39.58.634746 -0500,
0.03125,180,78,8,5,left,0.8511414579115808,None,5,8,78,12,178.97011875000317,,,,,,,,,,,,,178.9558471669443,178.97011875000317,178.97011875000317,178.97011875000317,178.97011875000317,178.95655420795083,178.95697870803997,178.97011875000317,178.97011875000317,179.05691062496044,179.35548008303158,179.5712706670165,179.5712706670165,179.5712706670165,179.5712706670165,180.42493579199072,left,0.8511414579115808,None,523683,001,2025-03-03_23h39.52.258,motion-adaptation,2024.2.4,None,2025-03-03 23h39.58.634746 -0500,
0.03125,0,79,9,5,left,0.185585291008465,None,5,9,79,5,180.4365091669606,,,,,,,,,,,,,180.425180332968,180.4365091669606,185.42386258300394,180.4365091669606,185.42386258300394,185.42023829196114,185.4206380000105,185.42386258300394,185.42386258300394,185.50715674995445,185.80528816697188,186.0054653750267,186.0054653750267,186.022540749982,186.022540749982,186.20366224995814,left,0.185585291008465,None,523683,001,2025-03-03_23h39.52.258,motion-adaptation,2024.2.4,None,2025-03-03 23h39.58.634746 -0500,
0,0,80,10,5,left,0.36277454101946205,None,5,10,80,6,186.20803166704718,,,,,,,,,,,,,186.20389229198918,186.20803166704718,186.20803166704718,186.20803166704718,186.20803166704718,186.20446266699582,186.2047398330178,186.20803166704718,186.20803166704718,186.3031063330127,186.5892514999723,186.80304991698358,186.80304991698358,186.80592595797498,186.80592595797498,187.17276149999816,left,0.36277454101946205,None,523683,001,2025-03-03_23h39.52.258,motion-adaptation,2024.2.4,None,2025-03-03 23h39.58.634746 -0500,
0.0625,180,81,11,5,right,0.28604870894923806,None,5,11,81,11,187.1794159580022,,,,,,,,,,,,,187.17301466700155,187.1794159580022,187.1794159580022,187.1794159580022,187.1794159580022,187.17359941697214,187.17390229203738,187.1794159580022,187.1794159580022,187.27307750005275,187.56972187501378,187.78746904199943,187.78746904199943,187.78746904199943,187.78746904199943,188.0870509579545,right,0.28604870894923806,None,523683,001,2025-03-03_23h39.52.258,motion-adaptation,2024.2.4,None,2025-03-03 23h39.58.634746 -0500,
0.125,0,82,12,5,left,0.19089320895727724,None,5,12,82,3,188.0912931249477,,,,,,,,,,,,,188.08724158303812,188.0912931249477,188.0912931249477,188.0912931249477,188.0912931249477,188.0877518330235,188.08821900002658,188.0912931249477,188.0912931249477,188.18634295801166,188.4722840420436,188.68632516695652,188.68632516695652,188.68893754202873,188.68893754202873,188.8888034169795,left,0.19089320895727724,None,523683,001,2025-03-03_23h39.52.258,motion-adaptation,2024.2.4,None,2025-03-03 23h39.58.634746 -0500,
1,0,83,13,5,right,0.5558780829887837,None,5,13,83,0,188.90339245798532,,,,,,,,,,,,,188.88903379195835,188.90339245798532,188.90339245798532,188.90339245798532,188.90339245798532,188.88962599996012,188.88994124997407,188.90339245798532,188.90339245798532,189.00356650003232,189.28883070801385,189.5039674169384,189.5039674169384,189.5039674169384,189.5039674169384,190.07125629205257,right,0.5558780829887837,None,523683,001,2025-03-03_23h39.52.258,motion-adaptation,2024.2.4,None,2025-03-03 23h39.58.634746 -0500,
0.125,180,84,0,6,left,0.08389437501318753,None,6,0,84,10,190.0776602079859,,,,,,,,,,,,,190.0715210000053,190.0776602079859,195.08671266702004,190.0776602079859,195.08671266702004,195.07109237497207,195.07150029204786,195.08671266702004,195.08671266702004,195.16978074994404,195.4554994580103,195.6714936250355,195.6714936250355,195.68731070798822,195.68731070798822,195.77311037504114,left,0.08389437501318753,None,523683,001,2025-03-03_23h39.52.258,motion-adaptation,2024.2.4,None,2025-03-03 23h39.58.634746 -0500,
0.125,0,85,1,6,left,0.23032491595949978,None,6,1,85,3,195.7867521670414,,,,,,,,,,,,,195.77342145796865,195.7867521670414,195.7867521670414,195.7867521670414,195.7867521670414,195.77401908300817,195.77436270797625,195.7867521670414,195.7867521670414,195.87364404194523,196.1712007500464,196.37040316697676,196.37040316697676,196.38749783299863,196.38749783299863,196.60553941701073,left,0.23032491595949978,None,523683,001,2025-03-03_23h39.52.258,motion-adaptation,2024.2.4,None,2025-03-03 23h39.58.634746 -0500,
0.5,0,86,2,6,right,0.18530404206831008,None,6,2,86,1,196.62002033297904,,,,,,,,,,,,,196.60589254205115,196.62002033297904,196.62002033297904,196.62002033297904,196.62002033297904,196.60657333303243,196.60688262502663,196.62002033297904,196.62002033297904,196.70306125003844,197.0046429579379,197.22078562504612,197.22078562504612,197.22078562504612,197.22078562504612,197.40778008301277,right,0.18530404206831008,None,523683,001,2025-03-03_23h39.52.258,motion-adaptation,2024.2.4,None,2025-03-03 23h39.58.634746 -0500,
0,0,87,3,6,left,0.33917991595808417,None,6,3,87,6,197.4192200000398,,,,,,,,,,,,,197.4080482920399,197.4192200000398,197.4192200000398,197.4192200000398,197.4192200000398,197.40860974998213,197.40889033302665,197.4192200000398,197.4192200000398,197.50703025003895,197.80550629203208,198.02013362501748,198.02013362501748,198.02013362501748,198.02013362501748,198.37297074997332,left,0.33917991595808417,None,523683,001,2025-03-03_23h39.52.258,motion-adaptation,2024.2.4,None,2025-03-03 23h39.58.634746 -0500,
0.03125,180,88,4,6,left,0.25915399997029454,None,6,4,88,12,198.37973979196977,,,,,,,,,,,,,198.3732577499468,198.37973979196977,198.37973979196977,198.37973979196977,198.37973979196977,198.37391262501478,198.37430479202885,198.37973979196977,198.37973979196977,198.47231608303264,198.76971525000408,198.9743559169583,198.9743559169583,198.9743559169583,198.9743559169583,199.23871083301492,left,0.25915399997029454,None,523683,001,2025-03-03_23h39.52.258,motion-adaptation,2024.2.4,None,2025-03-03 23h39.58.634746 -0500,
0.25,180,89,5,6,left,0.05739783402532339,None,6,5,89,9,199.25326870800927,,,,,,,,,,,,,199.2390280830441,199.25326870800927,204.2548284579534,199.25326870800927,204.2548284579534,204.2380268330453,204.23839549999684,204.2548284579534,204.2548284579534,204.33640129200649,204.62288812501356,204.83661879203282,204.83661879203282,204.86951262503862,204.86951262503862,204.9051126249833,left,0.05739783402532339,None,523683,001,2025-03-03_23h39.52.258,motion-adaptation,2024.2.4,None,2025-03-03 23h39.58.634746 -0500,
0.0625,0,90,6,6,right,1.8360884999856353,None,6,6,90,4,204.91022291698027,,,,,,,,,,,,,204.90542695799377,204.91022291698027,204.91022291698027,204.91022291698027,204.91022291698027,204.906153082964,204.90648424997926,204.91022291698027,204.91022291698027,205.00223383295815,205.290076083038,205.50310125004034,205.50310125004034,205.50838679203298,205.50838679203298,207.3433473330224,right,1.8360884999856353,None,523683,001,2025-03-03_23h39.52.258,motion-adaptation,2024.2.4,None,2025-03-03 23h39.58.634746 -0500,
0.5,180,91,7,6,left,0.22891820804215968,None,6,7,91,8,207.35310116701294,,,,,,,,,,,,,207.34362941700965,207.35310116701294,207.35310116701294,207.35310116701294,207.35310116701294,207.3442290830426,207.34461383300368,207.35310116701294,207.35310116701294,207.44052316702437,207.73637733294163,207.9536860419903,207.9536860419903,207.9536860419903,207.9536860419903,208.18767670798115,left,0.22891820804215968,None,523683,001,2025-03-03_23h39.52.258,motion-adaptation,2024.2.4,None,2025-03-03 23h39.58.634746 -0500,
1,180,92,8,6,left,0.16797533410135657,None,6,8,92,7,208.19395995803643,,,,,,,,,,,,,208.1879036249593,208.19395995803643,208.19395995803643,208.19395995803643,208.19395995803643,208.18853516702075,208.18884358298965,208.19395995803643,208.19395995803643,208.28635887498967,208.5722999169957,208.7875357499579,208.7875357499579,208.8039972919505,208.8039972919505,208.97212762502022,left,0.16797533410135657,None,523683,001,2025-03-03_23h39.52.258,motion-adaptation,2024.2.4,None,2025-03-03 23h39.58.634746 -0500,
0,180,93,9,6,left,0.4021660420112312,None,6,9,93,13,208.9867721250048,,,,,,,,,,,,,208.97240829200018,208.9867721250048,208.9867721250048,208.9867721250048,208.9867721250048,208.97303975000978,208.97337179200258,208.9867721250048,208.9867721250048,209.0697685830528,209.35526895802468,209.5704624169739,209.5704624169739,209.58725366694853,209.58725366694853,209.98766587499995,left,0.4021660420112312,None,523683,001,2025-03-03_23h39.52.258,motion-adaptation,2024.2.4,None,2025-03-03 23h39.58.634746 -0500,
0.03125,0,94,10,6,left,0.15105645800940692,None,6,10,94,5,209.99324075004552,,,,,,,,,,,,,209.98792241699994,209.99324075004552,214.99065920803696,209.99324075004552,214.99065920803696,214.98707866703626,214.9874831669731,214.99065920803696,214.99065920803696,215.07310854201205,215.38717420795,215.58747987495735,215.58747987495735,215.60459899995476,215.60459899995476,215.74247341696173,left,0.15105645800940692,None,523683,001,2025-03-03_23h39.52.258,motion-adaptation,2024.2.4,None,2025-03-03 23h39.58.634746 -0500,
1,0,95,11,6,right,0.18478024995420128,None,6,11,95,0,215.75334262498654,,,,,,,,,,,,,215.74272845801897,215.75334262498654,215.75334262498654,215.75334262498654,215.75334262498654,215.74333166703582,215.7436417499557,215.75334262498654,215.75334262498654,215.8394682080252,216.1364984170068,216.35419324995019,216.35419324995019,216.35419324995019,216.35419324995019,216.54114149999805,right,0.18478024995420128,None,523683,001,2025-03-03_23h39.52.258,motion-adaptation,2024.2.4,None,2025-03-03 23h39.58.634746 -0500,
0.25,0,96,12,6,left,0.2503952500410378,None,6,12,96,2,216.55301183299161,,,,,,,,,,,,,216.54136254196055,216.55301183299161,216.55301183299161,216.55301183299161,216.55301183299161,216.5418933329638,216.54221137496643,216.55301183299161,216.55301183299161,216.63896791695151,216.9363860420417,217.1387117919512,217.1387117919512,217.1387117919512,217.1387117919512,217.39089012495242,left,0.2503952500410378,None,523683,001,2025-03-03_23h39.52.258,motion-adaptation,2024.2.4,None,2025-03-03 23h39.58.634746 -0500,
0.0625,180,97,13,6,left,0.23287041601724923,None,6,13,97,11,217.40314158296678,,,,,,,,,,,,,217.39118354197126,217.40314158296678,217.40314158296678,217.40314158296678,217.40314158296678,217.39182908297516,217.39215724996757,217.40314158296678,217.40314158296678,217.48904612497427,217.78635595797095,217.98952366702724,217.98952366702724,217.98952366702724,217.98952366702724,218.22768741694745,left,0.23287041601724923,None,523683,001,2025-03-03_23h39.52.258,motion-adaptation,2024.2.4,None,2025-03-03 23h39.58.634746 -0500,
0.03125,0,98,0,7,left,0.24247466691303998,None,7,0,98,5,218.23641245800536,,,,,,,,,,,,,218.2279882079456,218.23641245800536,218.23641245800536,218.23641245800536,218.23641245800536,218.22865291696507,218.22905370802619,218.23641245800536,218.23641245800536,218.3234677920118,218.62178412498906,218.82292616704945,218.82292616704945,218.82292616704945,218.82292616704945,219.07130504201632,left,0.24247466691303998,None,523683,001,2025-03-03_23h39.52.258,motion-adaptation,2024.2.4,None,2025-03-03 23h39.58.634746 -0500,
1,0,99,1,7,right,0.09341466694604605,None,7,1,99,0,219.07726208295207,,,,,,,,,,,,,219.0715432500001,219.07726208295207,224.0876946670469,219.07726208295207,224.0876946670469,224.07120429200586,224.07158012501895,224.0876946670469,224.0876946670469,224.17066754202824,224.45805970800575,224.67096695804503,224.67096695804503,224.68798608297948,224.68798608297948,224.77228108304553,right,0.09341466694604605,None,523683,001,2025-03-03_23h39.52.258,motion-adaptation,2024.2.4,None,2025-03-03 23h39.58.634746 -0500,
0,0,100,2,7,left,0.25145112501922995,None,7,2,100,6,224.7867990829982,,,,,,,,,,,,,224.7726186249638,224.7867990829982,224.7867990829982,224.7867990829982,224.7867990829982,224.773405291955,224.77369041694328,224.7867990829982,224.7867990829982,224.87240012502298,225.17008533293847,225.3869102919707,225.3869102919707,225.3869102919707,225.3869102919707,225.64055091701448,left,0.25145112501922995,None,523683,001,2025-03-03_23h39.52.258,motion-adaptation,2024.2.4,None,2025-03-03 23h39.58.634746 -0500,
0.125,180,101,3,7,left,0.6510804999852553,None,7,3,101,10,225.6536255000392,,,,,,,,,,,,,225.64082833298016,225.6536255000392,225.6536255000392,225.6536255000392,225.6536255000392,225.64148795802612,225.64181416702922,225.6536255000392,225.6536255000392,225.74021233303938,226.03881470800843,226.2541295000119,226.2541295000119,226.2541295000119,226.2541295000119,226.92153416702058,left,0.6510804999852553,None,523683,001,2025-03-03_23h39.52.258,motion-adaptation,2024.2.4,None,2025-03-03 23h39.58.634746 -0500,
0.25,180,102,4,7,left,0.1384937500115484,None,7,4,102,9,226.92636916704942,,,,,,,,,,,,,226.9218487079488,226.92636916704942,226.92636916704942,226.92636916704942,226.92636916704942,226.92253800004255,226.92290291702375,226.92636916704942,226.92636916704942,227.01977520796936,227.3053453329485,227.53718683298212,227.53718683298212,227.53718683298212,227.53718683298212,227.6908826669678,left,0.1384937500115484,None,523683,001,2025-03-03_23h39.52.258,motion-adaptation,2024.2.4,None,2025-03-03 23h39.58.634746 -0500,
1,180,103,5,7,left,0.14789045799989253,None,7,5,103,7,227.7033675420098,,,,,,,,,,,,,227.69116212497465,227.7033675420098,227.7033675420098,227.7033675420098,227.7033675420098,227.69180212495849,227.69216787500773,227.7033675420098,227.7033675420098,227.7893372499384,228.10430795804132,228.30420825001784,228.30420825001784,228.30420825001784,228.30420825001784,228.45677095802967,left,0.14789045799989253,None,523683,001,2025-03-03_23h39.52.258,motion-adaptation,2024.2.4,None,2025-03-03 23h39.58.634746 -0500,
0.5,0,104,6,7,right,0.17340329196304083,None,7,6,104,1,228.47001316701062,,,,,,,,,,,,,228.45701391703915,228.47001316701062,233.4572034579469,228.47001316701062,233.4572034579469,233.45353166700806,233.45391933294013,233.4572034579469,233.4572034579469,233.54005924996454,233.83646962500643,234.05410095804837,234.05410095804837,234.07097966701258,234.07097966701258,234.23797845793888,right,0.17340329196304083,None,523683,001,2025-03-03_23h39.52.258,motion-adaptation,2024.2.4,None,2025-03-03 23h39.58.634746 -0500,
0.0625,180,105,7,7,left,0.13822362502105534,None,7,7,105,11,234.2439092079876,,,,,,,,,,,,,234.23831066698767,234.2439092079876,234.2439092079876,234.2439092079876,234.2439092079876,234.23895637504756,234.2392469580518,234.2439092079876,234.2439092079876,234.33642624993809,234.6219716250198,234.83642283303197,234.83642283303197,234.840118000051,234.840118000051,234.98793862503953,left,0.13822362502105534,None,523683,001,2025-03-03_23h39.52.258,motion-adaptation,2024.2.4,None,2025-03-03 23h39.58.634746 -0500,
0.25,0,106,8,7,left,0.3652252499014139,None,7,8,106,2,234.99362591700628,,,,,,,,,,,,,234.98828545794822,234.99362591700628,234.99362591700628,234.99362591700628,234.99362591700628,234.98883149994072,234.98910170805175,234.99362591700628,234.99362591700628,235.0864409999922,235.3722144169733,235.5863936250098,235.5863936250098,235.58947670797352,235.58947670797352,235.9565797499381,left,0.3652252499014139,None,523683,001,2025-03-03_23h39.52.258,motion-adaptation,2024.2.4,None,2025-03-03 23h39.58.634746 -0500,
0.03125,180,107,9,7,left,0.13495408394373953,None,7,9,107,12,235.969999874942,,,,,,,,,,,,,235.9568443329772,235.969999874942,235.969999874942,235.969999874942,235.969999874942,235.95750387501903,235.9578503749799,235.969999874942,235.969999874942,236.05659599998035,236.3530427919468,236.5708549170522,236.5708549170522,236.5708549170522,236.5708549170522,236.70758320798632,left,0.13495408394373953,None,523683,001,2025-03-03_23h39.52.258,motion-adaptation,2024.2.4,None,2025-03-03 23h39.58.634746 -0500,
0.125,0,108,10,7,left,0.2848199170548469,None,7,10,108,3,236.71982504194602,,,,,,,,,,,,,236.70784104196355,236.71982504194602,236.71982504194602,236.71982504194602,236.71982504194602,236.7084152919706,236.708744707983,236.71982504194602,236.71982504194602,236.80586220801342,237.10305945796426,237.3054384579882,237.3054384579882,237.3054384579882,237.3054384579882,237.59206833294593,left,0.2848199170548469,None,523683,001,2025-03-03_23h39.52.258,motion-adaptation,2024.2.4,None,2025-03-03 23h39.58.634746 -0500,
0.5,180,109,11,7,left,0.08397775003686547,None,7,11,109,8,237.60303416696843,,,,,,,,,,,,,237.59234233305324,237.60303416696843,242.60421345802024,237.60303416696843,242.60421345802024,242.58856408298016,242.58925624995027,242.60421345802024,242.60421345802024,242.68638104200363,242.9719252079958,243.20443604199681,243.20443604199681,243.20443604199681,243.20443604199681,243.30710850004107,left,0.08397775003686547,None,523683,001,2025-03-03_23h39.52.258,motion-adaptation,2024.2.4,None,2025-03-03 23h39.58.634746 -0500,
0.0625,0,110,12,7,left,0.30917049990966916,None,7,12,110,4,243.31990766699892,,,,,,,,,,,,,243.3074155000504,243.31990766699892,243.31990766699892,243.31990766699892,243.31990766699892,243.30805212503765,243.30841562501155,243.31990766699892,243.31990766699892,243.40705933293793,243.72061399999075,243.90657737501897,243.90657737501897,243.90657737501897,243.90657737501897,244.2233777079964,left,0.30917049990966916,None,523683,001,2025-03-03_23h39.52.258,motion-adaptation,2024.2.4,None,2025-03-03 23h39.58.634746 -0500,
0,180,111,13,7,right,1.550383499939926,None,7,13,111,13,244.23674887500238,,,,,,,,,,,,,244.2236320830416,244.23674887500238,244.23674887500238,244.23674887500238,244.23674887500238,244.22428316704463,244.2245907499455,244.23674887500238,244.23674887500238,244.3259217919549,244.6224838750204,244.8222856669454,244.8222856669454,244.8222856669454,244.8222856669454,246.3911297499435,right,1.550383499939926,None,523683,001,2025-03-03_23h39.52.258,motion-adaptation,2024.2.4,None,2025-03-03 23h39.58.634746 -0500,
0.0625,180,112,0,8,left,0.3186642079381272,None,8,0,112,11,246.40342666697688,,,,,,,,,,,,,246.39144154195674,246.40342666697688,246.40342666697688,246.40342666697688,246.40342666697688,246.39221566694323,246.39262733294163,246.40342666697688,246.40342666697688,246.4894276249688,246.786439999938,247.00357716705184,247.00357716705184,247.00357716705184,247.00357716705184,247.32502291700803,left,0.3186642079381272,None,523683,001,2025-03-03_23h39.52.258,motion-adaptation,2024.2.4,None,2025-03-03 23h39.58.634746 -0500,
0.0625,0,113,1,8,left,0.8968890840187669,None,8,1,113,4,247.33642225002404,,,,,,,,,,,,,247.325307333027,247.33642225002404,247.33642225002404,247.33642225002404,247.33642225002404,247.32598099997267,247.3263621670194,247.33642225002404,247.33642225002404,247.42363916698378,247.7191928329412,247.92536208301317,247.92536208301317,247.92536208301317,247.92536208301317,248.82476804195903,left,0.8968890840187669,None,523683,001,2025-03-03_23h39.52.258,motion-adaptation,2024.2.4,None,2025-03-03 23h39.58.634746 -0500,
1,0,114,2,8,right,0.08033020899165422,None,8,2,114,0,248.83646625000983,,,,,,,,,,,,,248.82504587504081,248.83646625000983,253.82393449998926,248.83646625000983,253.82393449998926,253.820498749963,253.82090579194482,253.82393449998926,253.82393449998926,253.90697037498467,254.2061949169729,254.40826062497217,254.40826062497217,254.41976750001777,254.41976750001777,254.49098833301105,right,0.08033020899165422,None,523683,001,2025-03-03_23h39.52.258,motion-adaptation,2024.2.4,None,2025-03-03 23h39.58.634746 -0500,
0.5,180,115,3,8,left,0.11704791698139161,None,8,3,115,8,254.50308658299036,,,,,,,,,,,,,254.4912329169456,254.50308658299036,254.50308658299036,254.50308658299036,254.50308658299036,254.49180937500205,254.49212187505327,254.50308658299036,254.50308658299036,254.59014250000473,254.88634591700975,255.10472316702362,255.10472316702362,255.10472316702362,255.10472316702362,255.22438758297358,left,0.11704791698139161,None,523683,001,2025-03-03_23h39.52.258,motion-adaptation,2024.2.4,None,2025-03-03 23h39.58.634746 -0500,
0.25,0,116,4,8,right,0.2754895829129964,None,8,4,116,2,255.23647716699634,,,,,,,,,,,,,255.22465637500864,255.23647716699634,255.23647716699634,255.23647716699634,255.23647716699634,255.2254328749841,255.22581845801324,255.23647716699634,255.23647716699634,255.32263499998953,255.61972379195504,255.82306887500454,255.82306887500454,255.82306887500454,255.82306887500454,256.10630158300046,right,0.2754895829129964,None,523683,001,2025-03-03_23h39.52.258,motion-adaptation,2024.2.4,None,2025-03-03 23h39.58.634746 -0500,
0,0,117,5,8,left,0.2671230420237407,None,8,5,117,6,256.1132771249395,,,,,,,,,,,,,256.1066054169787,256.1132771249395,256.1132771249395,256.1132771249395,256.1132771249395,256.1076178329531,256.10803320794366,256.1132771249395,256.1132771249395,256.2077270420268,256.52034349995665,256.70528479199857,256.70528479199857,256.70528479199857,256.70528479199857,256.98724775004666,left,0.2671230420237407,None,523683,001,2025-03-03_23h39.52.258,motion-adaptation,2024.2.4,None,2025-03-03 23h39.58.634746 -0500,
0.125,0,118,6,8,right,0.30823779106140137,None,8,6,118,3,256.99142924998887,,,,,,,,,,,,,256.98745883302763,256.99142924998887,256.99142924998887,256.99142924998887,256.99142924998887,256.9879051670432,256.9881776670227,256.99142924998887,256.99142924998887,257.0862833750434,257.37332033296116,257.5873923749896,257.5873923749896,257.6040048749419,257.6040048749419,257.90439399995375,right,0.30823779106140137,None,523683,001,2025-03-03_23h39.52.258,motion-adaptation,2024.2.4,None,2025-03-03 23h39.58.634746 -0500,
1,180,119,7,8,left,0.08499287499580532,None,8,7,119,7,257.91027724999003,,,,,,,,,,,,,257.9046702920459,257.91027724999003,262.9064707920188,257.91027724999003,262.9064707920188,262.9035348750185,262.90392112499103,262.9064707920188,262.9064707920188,263.0034146249527,263.2887710420182,263.4888911669841,263.4888911669841,263.5031182919629,263.5031182919629,263.5879655419849,left,0.08499287499580532,None,523683,001,2025-03-03_23h39.52.258,motion-adaptation,2024.2.4,None,2025-03-03 23h39.58.634746 -0500,
0.5,0,120,8,8,right,0.2973115419736132,None,8,8,120,1,263.59397579194047,,,,,,,,,,,,,263.58832320803776,263.59397579194047,263.59397579194047,263.59397579194047,263.59397579194047,263.5888911669608,263.58918141701724,263.59397579194047,263.59397579194047,263.6863654999761,263.97333933296613,264.1864557079971,264.1864557079971,264.1903091670247,264.1903091670247,264.48772029194515,right,0.2973115419736132,None,523683,001,2025-03-03_23h39.52.258,motion-adaptation,2024.2.4,None,2025-03-03 23h39.58.634746 -0500,
0.03125,180,121,9,8,left,0.16981629200745374,None,8,9,121,12,264.49373516696505,,,,,,,,,,,,,264.4880280420184,264.49373516696505,264.49373516696505,264.49373516696505,264.49373516696505,264.4885902500246,264.48887683299836,264.49373516696505,264.49373516696505,264.58632766699884,264.8722463330487,265.08578745799605,265.08578745799605,265.0889232499758,265.0889232499758,265.2575706669595,left,0.16981629200745374,None,523683,001,2025-03-03_23h39.52.258,motion-adaptation,2024.2.4,None,2025-03-03 23h39.58.634746 -0500,
0.25,180,122,10,8,left,0.3555614580400288,None,8,10,122,9,265.26968808297534,,,,,,,,,,,,,265.257814874989,265.26968808297534,265.26968808297534,265.26968808297534,265.26968808297534,265.258413417032,265.2587392079877,265.26968808297534,265.26968808297534,265.3556811249582,265.65450283302926,265.8554527499946,265.8554527499946,265.8554527499946,265.8554527499946,266.22112433298025,left,0.3555614580400288,None,523683,001,2025-03-03_23h39.52.258,motion-adaptation,2024.2.4,None,2025-03-03 23h39.58.634746 -0500,
0.03125,0,123,11,8,right,1.03503437503241,None,8,11,123,5,266.2273023329908,,,,,,,,,,,,,266.2214577499544,266.2273023329908,266.2273023329908,266.2273023329908,266.2273023329908,266.2220303330105,266.2223509999458,266.2273023329908,266.2273023329908,266.31957912503276,266.6068142920267,266.82259266695473,266.82259266695473,266.82259266695473,266.82259266695473,267.87393970799167,right,1.03503437503241,None,523683,001,2025-03-03_23h39.52.258,motion-adaptation,2024.2.4,None,2025-03-03 23h39.58.634746 -0500,
0.125,180,124,12,8,left,0.11515670793596655,None,8,12,124,10,267.8867859579623,,,,,,,,,,,,,267.87422329199035,267.8867859579623,272.8762147499947,267.8867859579623,272.8762147499947,272.8715000420343,272.8723873749841,272.8762147499947,272.8762147499947,272.969696791959,273.25552141701337,273.4697855419945,273.4697855419945,273.47349145798944,273.47349145798944,273.5877437919844,left,0.11515670793596655,None,523683,001,2025-03-03_23h39.52.258,motion-adaptation,2024.2.4,None,2025-03-03 23h39.58.634746 -0500,
0,180,125,13,8,left,0.2794812499778345,None,8,13,125,13,273.59367083304096,,,,,,,,,,,,,273.5879782079719,273.59367083304096,273.59367083304096,273.59367083304096,273.59367083304096,273.5885322500253,273.58886245801114,273.59367083304096,273.59367083304096,273.68643074994907,273.9722964169923,274.1866298329551,274.1866298329551,274.1907098329393,274.1907098329393,274.4721796249505,left,0.2794812499778345,None,523683,001,2025-03-03_23h39.52.258,motion-adaptation,2024.2.4,None,2025-03-03 23h39.58.634746 -0500,
0.5,0,126,0,9,right,0.3254297920502722,None,9,0,126,1,274.47750820801593,,,,,,,,,,,,,274.47241120797116,274.47750820801593,274.47750820801593,274.47750820801593,274.47750820801593,274.4729007499991,274.4731761669973,274.47750820801593,274.47750820801593,274.5698433329817,274.8707247079583,275.06937225,275.06937225,275.0728512919741,275.0728512919741,275.4047411249485,right,0.3254297920502722,None,523683,001,2025-03-03_23h39.52.258,motion-adaptation,2024.2.4,None,2025-03-03 23h39.58.634746 -0500,
0.5,180,127,1,9,left,0.13094495795667171,None,9,1,127,8,275.41142745804973,,,,,,,,,,,,,275.40503749996424,275.41142745804973,275.41142745804973,275.41142745804973,275.41142745804973,275.40581145801116,275.4062018330442,275.41142745804973,275.41142745804973,275.50257500004955,275.78845241700765,276.0030067920452,276.0030067920452,276.00667324999813,276.00667324999813,276.13770320801996,left,0.13094495795667171,None,523683,001,2025-03-03_23h39.52.258,motion-adaptation,2024.2.4,None,2025-03-03 23h39.58.634746 -0500,
1,0,128,2,9,right,0.2577532500727102,None,9,2,128,0,276.1436406249413,,,,,,,,,,,,,276.1379415829433,276.1436406249413,276.1436406249413,276.1436406249413,276.1436406249413,276.138542916975,276.13885700004175,276.1436406249413,276.1436406249413,276.23625595797785,276.5221666250145,276.73643412499223,276.73643412499223,276.7412450830452,276.7412450830452,277.0056079579517,right,0.2577532500727102,None,523683,001,2025-03-03_23h39.52.258,motion-adaptation,2024.2.4,None,2025-03-03 23h39.58.634746 -0500,
0.125,180,129,3,9,left,0.1474679169477895,None,9,3,129,10,277.01993112498894,,,,,,,,,,,,,277.0059861249756,277.01993112498894,282.00727929198183,277.01993112498894,282.00727929198183,282.0036143329926,282.00398541695904,282.00727929198183,282.00727929198183,282.0903458329849,282.3859172499506,282.5914706250187,282.5914706250187,282.60300887504127,282.60300887504127,282.75727933296,left,0.1474679169477895,None,523683,001,2025-03-03_23h39.52.258,motion-adaptation,2024.2.4,None,2025-03-03 23h39.58.634746 -0500,
0,0,130,4,9,left,0.4009267089422792,None,9,4,130,6,282.77005858300254,,,,,,,,,,,,,282.7575730419485,282.77005858300254,282.77005858300254,282.77005858300254,282.77005858300254,282.75825595797505,282.7585895829834,282.77005858300254,282.77005858300254,282.85723304201383,283.1562439999543,283.35395112494007,283.35395112494007,283.371100999997,283.371100999997,283.77135108294897,left,0.4009267089422792,None,523683,001,2025-03-03_23h39.52.258,motion-adaptation,2024.2.4,None,2025-03-03 23h39.58.634746 -0500,
0.0625,180,131,5,9,left,0.24737574998289347,None,9,5,131,11,283.7776835419936,,,,,,,,,,,,,283.77159120794386,283.7776835419936,283.7776835419936,283.7776835419936,283.7776835419936,283.772277125041,283.7725946250139,283.7776835419936,283.7776835419936,283.86977941694204,284.1706967500504,284.36974662495777,284.36974662495777,284.3747947079828,284.3747947079828,284.6228952499805,left,0.24737574998289347,None,523683,001,2025-03-03_23h39.52.258,motion-adaptation,2024.2.4,None,2025-03-03 23h39.58.634746 -0500,
0.0625,0,132,6,9,right,0.2858083749888465,None,9,6,132,4,284.636015666998,,,,,,,,,,,,,284.62319904204924,284.636015666998,284.636015666998,284.636015666998,284.636015666998,284.62387579202186,284.62428720796015,284.636015666998,284.636015666998,284.7230581670301,285.01967087504454,285.2220690000104,285.2220690000104,285.2220690000104,285.2220690000104,285.52109024999663,right,0.2858083749888465,None,523683,001,2025-03-03_23h39.52.258,motion-adaptation,2024.2.4,None,2025-03-03 23h39.58.634746 -0500,
0.125,0,133,7,9,left,0.20461987506132573,None,9,7,133,3,285.5271490829764,,,,,,,,,,,,,285.52131933299825,285.5271490829764,285.5271490829764,285.5271490829764,285.5271490829764,285.52218750002794,285.5225193329388,285.5271490829764,285.5271490829764,285.61973862501327,285.9061934580095,286.11968654196244,286.11968654196244,286.12447991699446,286.12447991699446,286.33883345802315,left,0.20461987506132573,None,523683,001,2025-03-03_23h39.52.258,motion-adaptation,2024.2.4,None,2025-03-03 23h39.58.634746 -0500,
0.25,0,134,8,9,left,0.2241817080648616,None,9,8,134,2,286.35339679196477,,,,,,,,,,,,,286.33911883295514,286.35339679196477,291.3392725000158,286.35339679196477,291.3392725000158,291.33631654200144,291.33669508295134,291.3392725000158,291.3392725000158,291.4236032499466,291.7374034579843,291.9381443329621,291.9381443329621,291.9541883750353,291.9541883750353,292.17131458304357,left,0.2241817080648616,None,523683,001,2025-03-03_23h39.52.258,motion-adaptation,2024.2.4,None,2025-03-03 23h39.58.634746 -0500,
1,180,135,9,9,left,None,None,9,9,135,7,292.17769504198804,,,,,,,,,,,,,292.1715485829627,292.17769504198804,292.17769504198804,292.17769504198804,292.17769504198804,292.17215491703246,292.1724580420414,292.17769504198804,292.17769504198804,292.26983008300886,292.55553270794917,292.787318250048,292.787318250048,292.787318250048,292.787318250048,292.9877670420101,left,None,None,523683,001,2025-03-03_23h39.52.258,motion-adaptation,2024.2.4,None,2025-03-03 23h39.58.634746 -0500,
0.03125,0,136,10,9,left,0.22564241604413837,None,9,10,136,5,292.99255329195876,,,,,,,,,,,,,292.9880036249524,292.99255329195876,292.99255329195876,292.99255329195876,292.99255329195876,292.98861650004983,292.9889932080405,292.99255329195876,292.99255329195876,293.08632775000297,293.38748608296737,293.60399791703094,293.60399791703094,293.60399791703094,293.60399791703094,293.8398120000493,left,0.22564241604413837,None,523683,001,2025-03-03_23h39.52.258,motion-adaptation,2024.2.4,None,2025-03-03 23h39.58.634746 -0500,
0.03125,180,137,11,9,left,0.22837104205973446,None,9,11,137,12,293.8461316670291,,,,,,,,,,,,,293.8400993749965,293.8461316670291,293.8461316670291,293.8461316670291,293.8461316670291,293.8407337079989,293.8411146670114,293.8461316670291,293.8461316670291,293.939908750006,294.23636691702995,294.4390185000375,294.4390185000375,294.4390185000375,294.4390185000375,294.6733244579518,left,0.22837104205973446,None,523683,001,2025-03-03_23h39.52.258,motion-adaptation,2024.2.4,None,2025-03-03 23h39.58.634746 -0500,
0.25,180,138,12,9,left,0.1957765829283744,None,9,12,138,9,294.6866448749788,,,,,,,,,,,,,294.67361833294854,294.6866448749788,294.6866448749788,294.6866448749788,294.6866448749788,294.67427862493787,294.67465395794716,294.6866448749788,294.6866448749788,294.77282862504944,295.0696605000412,295.27493295795284,295.27493295795284,295.27493295795284,295.27493295795284,295.4740777499974,left,0.1957765829283744,None,523683,001,2025-03-03_23h39.52.258,motion-adaptation,2024.2.4,None,2025-03-03 23h39.58.634746 -0500,
0,180,139,13,9,left,0.17591658304445446,None,9,13,139,13,295.48556308296975,,,,,,,,,,,,,295.47429995797575,295.48556308296975,300.4757146249758,295.48556308296975,300.4757146249758,300.47111629194114,300.47197604202665,300.4757146249758,300.4757146249758,300.5696862080367,300.87091687496286,301.07050604198594,301.07050604198594,301.08773183298763,301.08773183298763,301.2571822919417,left,0.17591658304445446,None,523683,001,2025-03-03_23h39.52.258,motion-adaptation,2024.2.4,None,2025-03-03 23h39.58.634746 -0500,
