coherence,direction,thisN,thisTrialN,thisRepN,key_resp.keys,key_resp.rt,key_resp.duration,trials.thisRepN,trials.thisTrialN,trials.thisN,trials.thisIndex,thisRow.t,notes,begin_experiment.started,instructions.started,key_resp_2.started,begin_experiment.stopped,key_resp_2.keys,key_resp_2.rt,key_resp_2.duration,adaptation.started,polygon_adaptation.started,fixation_adaptation.started,adaptation.stopped,top_up_adaptation.started,polygon_top.started,polygon_top.stopped,fixation_top.started,fixation_top.stopped,top_up_adaptation.stopped,trial.started,polygon.started,fixation.started,dots.started,dots.stopped,key_resp.started,fixation_respond.started,polygon.stopped,fixation.stopped,trial.stopped,trials.key_resp.keys,trials.key_resp.rt,trials.key_resp.duration,participant,session,date,expName,psychopyVersion,frameRate,expStart,
,,,,,,,,,,,,,,0.011260916944593191,0.02168433298356831,0.02168433298356831,7.160974457976408,space,7.113123542047106,None,,,,,,,,,,,,,,,,,,,,,,,,demo,001,2025-03-05_19h44.16.495,motion-adaptation,2024.2.4,None,2025-03-05 19h44.23.824331 -0500,
,,,,,,,,,,,,,,,,,,,,,7.161056666984223,7.235071791918017,7.235071791918017,37.17197287501767,,,,,,,,,,,,,,,,,,,,demo,001,2025-03-05_19h44.16.495,motion-adaptation,2024.2.4,None,2025-03-05 19h44.23.824331 -0500,
0.3,0,0,0,0,left,0.7018867919687182,None,0,0,0,3,37.19508820795454,,,,,,,,,,,,,37.189682582975365,37.19508820795454,37.19508820795454,37.19508820795454,37.19508820795454,37.19026883295737,37.19061733293347,37.19508820795454,37.19508820795454,37.288540457957424,37.57365337491501,37.788503624964505,37.788503624964505,37.79174137499649,37.79174137499649,38.508075707941316,left,0.7018867919687182,None,demo,001,2025-03-05_19h44.16.495,motion-adaptation,2024.2.4,None,2025-03-05 19h44.23.824331 -0500,
0,0,1,1,0,left,0.5819893750594929,None,0,1,1,6,38.52219437493477,,,,,,,,,,,,,38.508312916965224,38.52219437493477,38.52219437493477,38.52219437493477,38.52219437493477,38.508922624983825,38.50932462501805,38.52219437493477,38.52219437493477,38.60523020802066,38.8909715419868,39.10519520798698,39.10519520798698,39.109060832997784,39.109060832997784,39.69246333301999,left,0.5819893750594929,None,demo,001,2025-03-05_19h44.16.495,motion-adaptation,2024.2.4,None,2025-03-05 19h44.23.824331 -0500,
0.5,0,2,2,0,left,0.49232266598846763,None,0,2,2,1,39.70824399997946,,,,,,,,,,,,,39.692828250001185,39.70824399997946,39.70824399997946,39.70824399997946,39.70824399997946,39.69352416694164,39.69388299994171,39.70824399997946,39.70824399997946,39.79217254195828,40.09072741691489,40.306878082919866,40.306878082919866,40.322858374915086,40.322858374915086,40.80952912499197,left,0.49232266598846763,None,demo,001,2025-03-05_19h44.16.495,motion-adaptation,2024.2.4,None,2025-03-05 19h44.23.824331 -0500,
0.1,0,3,3,0,left,0.4073876249603927,None,0,3,3,5,40.82095145795029,,,,,,,,,,,,,40.8097860829439,40.82095145795029,45.80874899995979,40.82095145795029,45.80874899995979,45.805757499998435,45.80613033298869,45.80874899995979,45.80874899995979,45.89195020799525,46.18855016701855,46.40682558296248,46.40682558296248,46.42246666701976,46.42246666701976,46.8236357079586,left,0.4073876249603927,None,demo,001,2025-03-05_19h44.16.495,motion-adaptation,2024.2.4,None,2025-03-05 19h44.23.824331 -0500,
0.2,0,4,4,0,left,0.3198612079722807,None,0,4,4,4,46.830008874996565,,,,,,,,,,,,,46.823940166970715,46.830008874996565,46.830008874996565,46.830008874996565,46.830008874996565,46.8245065419469,46.824774125008844,46.830008874996565,46.830008874996565,46.92211004195269,47.20814762497321,47.439345499966294,47.439345499966294,47.439345499966294,47.439345499966294,47.76096891693305,left,0.3198612079722807,None,demo,001,2025-03-05_19h44.16.495,motion-adaptation,2024.2.4,None,2025-03-05 19h44.23.824331 -0500,
0.4,0,5,5,0,right,0.23459574999287724,None,0,5,5,2,47.7718425829662,,,,,,,,,,,,,47.761180875007994,47.7718425829662,47.7718425829662,47.7718425829662,47.7718425829662,47.76169208297506,47.76199616701342,47.7718425829662,47.7718425829662,47.85947991698049,48.15743050002493,48.37258479197044,48.37258479197044,48.37258479197044,48.37258479197044,48.61341791693121,right,0.23459574999287724,None,demo,001,2025-03-05_19h44.16.495,motion-adaptation,2024.2.4,None,2025-03-05 19h44.23.824331 -0500,
1,0,6,6,0,right,0.35055479197762907,None,0,6,6,0,48.62191783299204,,,,,,,,,,,,,48.613669499987736,48.62191783299204,48.62191783299204,48.62191783299204,48.62191783299204,48.614342457964085,48.614630082971416,48.62191783299204,48.62191783299204,48.70904679200612,49.00524020800367,49.207483332953416,49.207483332953416,49.207483332953416,49.207483332953416,49.57580266695004,right,0.35055479197762907,None,demo,001,2025-03-05_19h44.16.495,motion-adaptation,2024.2.4,None,2025-03-05 19h44.23.824331 -0500,
1,180,7,7,0,left,0.02637087507173419,None,0,7,7,7,49.588847292005084,,,,,,,,,,,,,49.57605924992822,49.588847292005084,54.58990149991587,49.588847292005084,54.58990149991587,54.574101249920204,54.575065374956466,54.58990149991587,54.58990149991587,54.67196391697507,54.97263104200829,55.171942916931584,55.171942916931584,55.18816812499426,55.18816812499426,55.206744791939855,left,0.02637087507173419,None,demo,001,2025-03-05_19h44.16.495,motion-adaptation,2024.2.4,None,2025-03-05 19h44.23.824331 -0500,
0.4,180,8,8,0,left,0.3313628330361098,None,0,8,8,9,55.21316129202023,,,,,,,,,,,,,55.207088249968365,55.21316129202023,55.21316129202023,55.21316129202023,55.21316129202023,55.20765054190997,55.20794266695157,55.21316129202023,55.21316129202023,55.30508716695476,55.59102295793127,55.80521316698287,55.80521316698287,55.8079951669788,55.8079951669788,56.142274666926824,left,0.3313628330361098,None,demo,001,2025-03-05_19h44.16.495,motion-adaptation,2024.2.4,None,2025-03-05 19h44.23.824331 -0500,
0.1,180,9,9,0,left,0.2753957499517128,None,0,9,9,12,56.155407042009756,,,,,,,,,,,,,56.14260337501764,56.155407042009756,56.155407042009756,56.155407042009756,56.155407042009756,56.14331079192925,56.14373029198032,56.155407042009756,56.155407042009756,56.241456166957505,56.53861354198307,56.741066041984595,56.741066041984595,56.741066041984595,56.741066041984595,57.02329112496227,left,0.2753957499517128,None,demo,001,2025-03-05_19h44.16.495,motion-adaptation,2024.2.4,None,2025-03-05 19h44.23.824331 -0500,
0.2,180,10,10,0,left,0.21004083298612386,None,0,10,10,11,57.029278124915436,,,,,,,,,,,,,57.02354570792522,57.029278124915436,57.029278124915436,57.029278124915436,57.029278124915436,57.024157624924555,57.02449004200753,57.029278124915436,57.029278124915436,57.12190158292651,57.407578042009845,57.63931054191198,57.63931054191198,57.63931054191198,57.63931054191198,57.85986208298709,left,0.21004083298612386,None,demo,001,2025-03-05_19h44.16.495,motion-adaptation,2024.2.4,None,2025-03-05 19h44.23.824331 -0500,
0.3,180,11,11,0,left,0.19035191601142287,None,0,11,11,10,57.86618799995631,,,,,,,,,,,,,57.860132916946895,57.86618799995631,62.85879849991761,57.86618799995631,62.85879849991761,62.85558370791841,62.85593170800712,62.85879849991761,62.85879849991761,62.956237541977316,63.24243849993218,63.44194304198027,63.44194304198027,63.455195375019684,63.455195375019684,63.64023616700433,left,0.19035191601142287,None,demo,001,2025-03-05_19h44.16.495,motion-adaptation,2024.2.4,None,2025-03-05 19h44.23.824331 -0500,
0,180,12,12,0,left,0.2518789579626173,None,0,12,12,13,63.646898666978814,,,,,,,,,,,,,63.6404997499194,63.646898666978814,63.646898666978814,63.646898666978814,63.646898666978814,63.64136358292308,63.641685666982085,63.646898666978814,63.646898666978814,63.73805583291687,64.02511458296794,64.25594833295327,64.25594833295327,64.25594833295327,64.25594833295327,64.52615054196212,left,0.2518789579626173,None,demo,001,2025-03-05_19h44.16.495,motion-adaptation,2024.2.4,None,2025-03-05 19h44.23.824331 -0500,
0.5,180,13,13,0,left,0.16191162506584078,None,0,13,13,8,64.53879149991553,,,,,,,,,,,,,64.52640429197345,64.53879149991553,64.53879149991553,64.53879149991553,64.53879149991553,64.52700570796151,64.52729408291634,64.53879149991553,64.53879149991553,64.62455616693478,64.92199845798314,65.13934791693464,65.13934791693464,65.13934791693464,65.13934791693464,65.30689204193186,left,0.16191162506584078,None,demo,001,2025-03-05_19h44.16.495,motion-adaptation,2024.2.4,None,2025-03-05 19h44.23.824331 -0500,
1,0,14,0,1,right,0.19123470806516707,None,1,0,14,0,65.31350983295124,,,,,,,,,,,,,65.30717283301055,65.31350983295124,65.31350983295124,65.31350983295124,65.31350983295124,65.30787504196633,65.30817299999762,65.31350983295124,65.31350983295124,65.40529987495393,65.690613499959,65.90481279196683,65.90481279196683,65.90963129198644,65.90963129198644,66.10696270794142,right,0.19123470806516707,None,demo,001,2025-03-05_19h44.16.495,motion-adaptation,2024.2.4,None,2025-03-05 19h44.23.824331 -0500,
0.5,0,15,1,1,right,0.43441145797260106,None,1,1,15,1,66.11328795796726,,,,,,,,,,,,,66.10731558292173,66.11328795796726,71.1082253329223,66.11328795796726,71.1082253329223,71.1056186669739,71.10598137497436,71.1082253329223,71.1082253329223,71.19151766691357,71.48860816692468,71.6908377079526,71.6908377079526,71.705252249958,71.705252249958,72.14256758301053,right,0.43441145797260106,None,demo,001,2025-03-05_19h44.16.495,motion-adaptation,2024.2.4,None,2025-03-05 19h44.23.824331 -0500,
0.3,0,16,2,1,left,0.2789522079983726,None,1,2,16,3,72.15556958294474,,,,,,,,,,,,,72.14283066696953,72.15556958294474,72.15556958294474,72.15556958294474,72.15556958294474,72.14345858292654,72.14380541699938,72.15556958294474,72.15556958294474,72.2425031249877,72.55577154201455,72.74209724995308,72.74209724995308,72.74209724995308,72.74209724995308,73.02343637496233,left,0.2789522079983726,None,demo,001,2025-03-05_19h44.16.495,motion-adaptation,2024.2.4,None,2025-03-05 19h44.23.824331 -0500,
0.5,180,17,3,1,left,0.21768895792774856,None,1,3,17,8,73.0299737919122,,,,,,,,,,,,,73.02369145792909,73.0299737919122,73.0299737919122,73.0299737919122,73.0299737919122,73.02442049991805,73.02484562492464,73.0299737919122,73.0299737919122,73.12196095800027,73.4085235419916,73.62316658301279,73.62316658301279,73.63983124995138,73.63983124995138,73.85599241696764,left,0.21768895792774856,None,demo,001,2025-03-05_19h44.16.495,motion-adaptation,2024.2.4,None,2025-03-05 19h44.23.824331 -0500,
0.1,180,18,4,1,left,0.2879701249767095,None,1,4,18,12,73.86047137493733,,,,,,,,,,,,,73.85623454197776,73.86047137493733,73.86047137493733,73.86047137493733,73.86047137493733,73.8568682919722,73.85716383298859,73.86047137493733,73.86047137493733,73.95528262492735,74.25593849993311,74.45680566690862,74.45680566690862,74.47291862498969,74.47291862498969,74.75853337498847,left,0.2879701249767095,None,demo,001,2025-03-05_19h44.16.495,motion-adaptation,2024.2.4,None,2025-03-05 19h44.23.824331 -0500,
0.4,180,19,5,1,left,0.1723117500077933,None,1,5,19,9,74.77220670797396,,,,,,,,,,,,,74.75883837498259,74.77220670797396,79.75862445798703,74.77220670797396,79.75862445798703,79.7558451249497,79.75620249996427,79.75862445798703,79.75862445798703,79.84266170801129,80.15619737491943,80.34169991698582,80.34169991698582,80.35529945802409,80.35529945802409,80.52436816692352,left,0.1723117500077933,None,demo,001,2025-03-05_19h44.16.495,motion-adaptation,2024.2.4,None,2025-03-05 19h44.23.824331 -0500,
0.4,0,20,6,1,right,0.15528766601346433,None,1,6,20,2,80.53844887495507,,,,,,,,,,,,,80.52464933297597,80.53844887495507,80.53844887495507,80.53844887495507,80.53844887495507,80.52529816702008,80.52565366693307,80.53844887495507,80.53844887495507,80.62534725002479,80.92195366695523,81.12195266701747,81.12195266701747,81.12543041701429,81.12543041701429,81.29174854198936,right,0.15528766601346433,None,demo,001,2025-03-05_19h44.16.495,motion-adaptation,2024.2.4,None,2025-03-05 19h44.23.824331 -0500,
0,0,21,7,1,left,0.2130053750006482,None,1,7,21,6,81.29771216691006,,,,,,,,,,,,,81.29198074992746,81.29771216691006,81.29771216691006,81.29771216691006,81.29771216691006,81.29258949996438,81.2929066249635,81.29771216691006,81.29771216691006,81.38862270792015,81.69014833297115,81.90635145793203,81.90635145793203,81.90635145793203,81.90635145793203,82.12349949998315,left,0.2130053750006482,None,demo,001,2025-03-05_19h44.16.495,motion-adaptation,2024.2.4,None,2025-03-05 19h44.23.824331 -0500,
1,180,22,8,1,left,0.26350224995985627,None,1,8,22,7,82.1295720419148,,,,,,,,,,,,,82.12372674990911,82.1295720419148,82.1295720419148,82.1295720419148,82.1295720419148,82.12441637495067,82.12476812500972,82.1295720419148,82.1295720419148,82.22193929192144,82.50929079193156,82.73962304193992,82.73962304193992,82.73962304193992,82.73962304193992,83.00650395802222,left,0.26350224995985627,None,demo,001,2025-03-05_19h44.16.495,motion-adaptation,2024.2.4,None,2025-03-05 19h44.23.824331 -0500,
0,180,23,9,1,left,0.07535058294888586,None,1,9,23,13,83.01173729193397,,,,,,,,,,,,,83.0066915419884,83.01173729193397,88.02209187496919,83.01173729193397,88.02209187496919,88.00864441692829,88.00953354197554,88.02209187496919,88.02209187496919,88.12222512497101,88.4231229169527,88.60538095794618,88.60538095794618,88.61089266696945,88.61089266696945,88.69007270794827,left,0.07535058294888586,None,demo,001,2025-03-05_19h44.16.495,motion-adaptation,2024.2.4,None,2025-03-05 19h44.23.824331 -0500,
0.2,180,24,10,1,left,0.18688933306839317,None,1,10,24,11,88.69664854195435,,,,,,,,,,,,,88.69031450001057,88.69664854195435,88.69664854195435,88.69664854195435,88.69664854195435,88.69089529197663,88.69131645793095,88.69664854195435,88.69664854195435,88.78870179201476,89.07591899996623,89.2886613329174,89.2886613329174,89.2913999579614,89.2913999579614,89.49051375000272,left,0.18688933306839317,None,demo,001,2025-03-05_19h44.16.495,motion-adaptation,2024.2.4,None,2025-03-05 19h44.23.824331 -0500,
0.3,180,25,11,1,left,0.1757109999889508,None,1,11,25,10,89.49621433299035,,,,,,,,,,,,,89.49075658293441,89.49621433299035,89.49621433299035,89.49621433299035,89.49621433299035,89.49131308298092,89.49160237493925,89.49621433299035,89.49621433299035,89.58862479194067,89.88980112492573,90.08856374991592,90.08856374991592,90.09177887497935,90.09177887497935,90.27320662501734,left,0.1757109999889508,None,demo,001,2025-03-05_19h44.16.495,motion-adaptation,2024.2.4,None,2025-03-05 19h44.23.824331 -0500,
0.1,0,26,12,1,right,0.1580984580796212,None,1,12,26,5,90.27878891699947,,,,,,,,,,,,,90.27342991693877,90.27878891699947,90.27878891699947,90.27878891699947,90.27878891699947,90.27408479200676,90.27435133291874,90.27878891699947,90.27878891699947,90.37209433293901,90.6580273329746,90.87354412500281,90.87354412500281,90.88952816696838,90.88952816696838,91.04291316692252,right,0.1580984580796212,None,demo,001,2025-03-05_19h44.16.495,motion-adaptation,2024.2.4,None,2025-03-05 19h44.23.824331 -0500,
0.2,0,27,13,1,right,0.39098079199902713,None,1,13,27,4,91.04903133295011,,,,,,,,,,,,,91.04318341694307,91.04903133295011,96.05659712501802,91.04903133295011,96.05659712501802,96.04113649995998,96.04193424992263,96.05659712501802,96.05659712501802,96.13872929196805,96.43964933301322,96.63920033292379,96.63920033292379,96.64398325001821,96.64398325001821,97.04180100001395,right,0.39098079199902713,None,demo,001,2025-03-05_19h44.16.495,motion-adaptation,2024.2.4,None,2025-03-05 19h44.23.824331 -0500,
1,180,28,0,2,left,0.1519961250014603,None,2,0,28,7,97.04838870791718,,,,,,,,,,,,,97.04207054199651,97.04838870791718,97.04838870791718,97.04838870791718,97.04838870791718,97.04271537496243,97.04308020800818,97.04838870791718,97.04838870791718,97.13864058291074,97.42414941696916,97.65588262490928,97.65588262490928,97.65588262490928,97.65588262490928,97.82334754196927,left,0.1519961250014603,None,demo,001,2025-03-05_19h44.16.495,motion-adaptation,2024.2.4,None,2025-03-05 19h44.23.824331 -0500,
0.2,0,29,1,2,left,0.13677058392204344,None,2,1,29,4,97.82977529196069,,,,,,,,,,,,,97.82360741693992,97.82977529196069,97.82977529196069,97.82977529196069,97.82977529196069,97.82422304200009,97.82462633296382,97.82977529196069,97.82977529196069,97.92191091692075,98.20763283292763,98.43939291697461,98.43939291697461,98.43939291697461,98.43939291697461,98.5779264169978,left,0.13677058392204344,None,demo,001,2025-03-05_19h44.16.495,motion-adaptation,2024.2.4,None,2025-03-05 19h44.23.824331 -0500,
0,0,30,2,2,left,0.4181057499954477,None,2,2,30,6,98.5886410420062,,,,,,,,,,,,,98.57816462498158,98.5886410420062,98.5886410420062,98.5886410420062,98.5886410420062,98.57867770793382,98.57900399994105,98.5886410420062,98.5886410420062,98.67416620801669,98.99013020796701,99.1746271669399,99.1746271669399,99.1746271669399,99.1746271669399,99.60911333293188,left,0.4181057499954477,None,demo,001,2025-03-05_19h44.16.495,motion-adaptation,2024.2.4,None,2025-03-05 19h44.23.824331 -0500,
0.3,0,31,3,2,right,0.24521145806647837,None,2,3,31,3,99.62223241699394,,,,,,,,,,,,,99.60961924993899,99.62223241699394,104.62228587490972,99.62223241699394,104.62228587490972,104.60759537492413,104.60829720797483,104.62228587490972,104.62228587490972,104.72218966693617,105.0234213329386,105.20530433300883,105.20530433300883,105.20904812496156,105.20904812496156,105.45786237495486,right,0.24521145806647837,None,demo,001,2025-03-05_19h44.16.495,motion-adaptation,2024.2.4,None,2025-03-05 19h44.23.824331 -0500,
0.1,180,32,4,2,left,0.15233512502163649,None,2,4,32,12,105.46425724995788,,,,,,,,,,,,,105.4581826669164,105.46425724995788,105.46425724995788,105.46425724995788,105.46425724995788,105.45881795801688,105.45916445797775,105.46425724995788,105.46425724995788,105.55919054197147,105.85536504199263,106.05627170798834,106.05627170798834,106.07313270797022,106.07313270797022,106.21050016698427,left,0.15233512502163649,None,demo,001,2025-03-05_19h44.16.495,motion-adaptation,2024.2.4,None,2025-03-05 19h44.23.824331 -0500,
0,180,33,5,2,left,0.25809524999931455,None,2,5,33,13,106.22196908295155,,,,,,,,,,,,,106.21074966702145,106.22196908295155,106.22196908295155,106.22196908295155,106.22196908295155,106.211359082954,106.2116439579986,106.22196908295155,106.22196908295155,106.30768458300736,106.62279704201501,106.82354245800525,106.82354245800525,106.82354245800525,106.82354245800525,107.0909352080198,left,0.25809524999931455,None,demo,001,2025-03-05_19h44.16.495,motion-adaptation,2024.2.4,None,2025-03-05 19h44.23.824331 -0500,
0.1,0,34,6,2,right,0.09056858392432332,None,2,6,34,5,107.09773108293302,,,,,,,,,,,,,107.09125424991362,107.09773108293302,107.09773108293302,107.09773108293302,107.09773108293302,107.09208741690964,107.09265029197559,107.09773108293302,107.09773108293302,107.18817391700577,107.47495508298744,107.70638666697778,107.70638666697778,107.70638666697778,107.70638666697778,107.80976420792285,right,0.09056858392432332,None,demo,001,2025-03-05_19h44.16.495,motion-adaptation,2024.2.4,None,2025-03-05 19h44.23.824331 -0500,
0.5,0,35,7,2,right,0.1751602500444278,None,2,7,35,1,107.82219041697681,,,,,,,,,,,,,107.81004729191773,107.82219041697681,112.82319604197983,107.82219041697681,112.82319604197983,112.8074324169429,112.80777504201978,112.82319604197983,112.82319604197983,112.90513941692188,113.20662924996577,113.4228051250102,113.4228051250102,113.4228051250102,113.4228051250102,113.6084344999399,right,0.1751602500444278,None,demo,001,2025-03-05_19h44.16.495,motion-adaptation,2024.2.4,None,2025-03-05 19h44.23.824331 -0500,
0.5,180,36,8,2,left,0.16666149999946356,None,2,8,36,8,113.62211991695222,,,,,,,,,,,,,113.6087389580207,113.62211991695222,113.62211991695222,113.62211991695222,113.62211991695222,113.60935862502083,113.60967795795295,113.62211991695222,113.62211991695222,113.70935516699683,114.00531408295501,114.20733387500513,114.20733387500513,114.20733387500513,114.20733387500513,114.39057991700247,left,0.16666149999946356,None,demo,001,2025-03-05_19h44.16.495,motion-adaptation,2024.2.4,None,2025-03-05 19h44.23.824331 -0500,
0.4,180,37,9,2,left,0.15980924991890788,None,2,9,37,9,114.39723012491595,,,,,,,,,,,,,114.3908283750061,114.39723012491595,114.39723012491595,114.39723012491595,114.39723012491595,114.39150704198983,114.39191687491257,114.39723012491595,114.39723012491595,114.4886249579722,114.77408554195426,115.00565779197495,115.00565779197495,115.00565779197495,115.00565779197495,115.17470404191408,left,0.15980924991890788,None,demo,001,2025-03-05_19h44.16.495,motion-adaptation,2024.2.4,None,2025-03-05 19h44.23.824331 -0500,
0.2,180,38,10,2,right,0.2969469999661669,None,2,10,38,11,115.18883179198019,,,,,,,,,,,,,115.17505266692024,115.18883179198019,115.18883179198019,115.18883179198019,115.18883179198019,115.17576249991544,115.17619333299808,115.18883179198019,115.18883179198019,115.27207141695544,115.55741954199038,115.78954287501983,115.78954287501983,115.78954287501983,115.78954287501983,116.09214795799926,right,0.2969469999661669,None,demo,001,2025-03-05_19h44.16.495,motion-adaptation,2024.2.4,None,2025-03-05 19h44.23.824331 -0500,
0.3,180,39,11,2,left,0.04470249998848885,None,2,11,39,10,116.10560675000306,,,,,,,,,,,,,116.09243070799857,116.10560675000306,121.09187479200773,116.10560675000306,121.09187479200773,121.08906729193404,121.08949112496339,121.09187479200773,121.09187479200773,121.18835966696497,121.4743539999472,121.68990795791615,121.68990795791615,121.70628024998587,121.70628024998587,121.7408887919737,left,0.04470249998848885,None,demo,001,2025-03-05_19h44.16.495,motion-adaptation,2024.2.4,None,2025-03-05 19h44.23.824331 -0500,
0.4,0,40,12,2,right,0.23621587501838803,None,2,12,40,2,121.74743095797021,,,,,,,,,,,,,121.74115062493365,121.74743095797021,121.74743095797021,121.74743095797021,121.74743095797021,121.74173337500542,121.74204570800066,121.74743095797021,121.74743095797021,121.83868195791729,122.13982391695026,122.3432479170151,122.3432479170151,122.3432479170151,122.3432479170151,122.58973699994385,right,0.23621587501838803,None,demo,001,2025-03-05_19h44.16.495,motion-adaptation,2024.2.4,None,2025-03-05 19h44.23.824331 -0500,
1,0,41,13,2,right,0.274669999955222,None,2,13,41,0,122.59516170795541,,,,,,,,,,,,,122.58996541693341,122.59516170795541,122.59516170795541,122.59516170795541,122.59516170795541,122.59055545798037,122.59085933293682,122.59516170795541,122.59516170795541,122.68864270800259,122.97716070793103,123.18872333294712,123.18872333294712,123.19136454199906,123.19136454199906,123.47666087502148,right,0.274669999955222,None,demo,001,2025-03-05_19h44.16.495,motion-adaptation,2024.2.4,None,2025-03-05 19h44.23.824331 -0500,
0.4,180,42,0,3,left,0.17336520901881158,None,3,0,42,9,123.48887658293825,,,,,,,,,,,,,123.47693679202348,123.48887658293825,123.48887658293825,123.48887658293825,123.48887658293825,123.47773370798677,123.47807533293962,123.48887658293825,123.48887658293825,123.57459550001658,123.87208858295344,124.07661270792596,124.07661270792596,124.07661270792596,124.07661270792596,124.25847024994437,left,0.17336520901881158,None,demo,001,2025-03-05_19h44.16.495,motion-adaptation,2024.2.4,None,2025-03-05 19h44.23.824331 -0500,
0.3,0,43,1,3,right,0.5517731659347191,None,3,1,43,3,124.26418674993329,,,,,,,,,,,,,124.2587117080111,124.26418674993329,129.25878495792858,124.26418674993329,129.25878495792858,129.25578799995128,129.25617712491658,129.25878495792858,129.25878495792858,129.34316487493925,129.6561442919774,129.84218437492382,129.84218437492382,129.855432500015,129.855432500015,130.40708687494043,right,0.5517731659347191,None,demo,001,2025-03-05_19h44.16.495,motion-adaptation,2024.2.4,None,2025-03-05 19h44.23.824331 -0500,
0.2,0,44,2,3,left,0.23753108293749392,None,3,2,44,4,130.41330100002233,,,,,,,,,,,,,130.4073999579996,130.41330100002233,130.41330100002233,130.41330100002233,130.41330100002233,130.40798575000372,130.4083521249704,130.41330100002233,130.41330100002233,130.50535454193596,130.80644833296537,131.02379045798443,131.02379045798443,131.02379045798443,131.02379045798443,131.27422216697596,left,0.23753108293749392,None,demo,001,2025-03-05_19h44.16.495,motion-adaptation,2024.2.4,None,2025-03-05 19h44.23.824331 -0500,
0.4,0,45,3,3,right,0.3106164170894772,None,3,3,45,2,131.28899058292154,,,,,,,,,,,,,131.27444391697645,131.28899058292154,131.28899058292154,131.28899058292154,131.28899058292154,131.27506575000007,131.27539008297026,131.28899058292154,131.28899058292154,131.37208595802076,131.65761104191188,131.8899333749432,131.8899333749432,131.8899333749432,131.8899333749432,132.20635374996345,right,0.3106164170894772,None,demo,001,2025-03-05_19h44.16.495,motion-adaptation,2024.2.4,None,2025-03-05 19h44.23.824331 -0500,
0.5,0,46,4,3,right,0.1914810409070924,None,3,4,46,1,132.2121133749606,,,,,,,,,,,,,132.20663254195824,132.2121133749606,132.2121133749606,132.2121133749606,132.2121133749606,132.20718716701958,132.20743641699664,132.2121133749606,132.2121133749606,132.30532612500247,132.59102112497203,132.8052909169346,132.8052909169346,132.8052909169346,132.8052909169346,133.0077764999587,right,0.1914810409070924,None,demo,001,2025-03-05_19h44.16.495,motion-adaptation,2024.2.4,None,2025-03-05 19h44.23.824331 -0500,
0.1,180,47,5,3,left,0.09678658295888454,None,3,5,47,12,133.01416929194238,,,,,,,,,,,,,133.00804633297957,133.01416929194238,138.00953937496524,133.01416929194238,138.00953937496524,138.0058129999088,138.0062429580139,138.00953937496524,138.00953937496524,138.09261104196776,138.40673087502364,138.60590183292516,138.60590183292516,138.6227165829623,138.6227165829623,138.70757691701874,left,0.09678658295888454,None,demo,001,2025-03-05_19h44.16.495,motion-adaptation,2024.2.4,None,2025-03-05 19h44.23.824331 -0500,
1,0,48,6,3,right,0.10633533296640962,None,3,6,48,0,138.72217650001403,,,,,,,,,,,,,138.70783104200382,138.72217650001403,138.72217650001403,138.72217650001403,138.72217650001403,138.70852524996735,138.70882337493822,138.72217650001403,138.72217650001403,138.8054312079912,139.09361354191788,139.32266170799267,139.32266170799267,139.32266170799267,139.32266170799267,139.44010266696569,right,0.10633533296640962,None,demo,001,2025-03-05_19h44.16.495,motion-adaptation,2024.2.4,None,2025-03-05 19h44.23.824331 -0500,
0.5,180,49,7,3,left,0.21015499997884035,None,3,7,49,8,139.44627566693816,,,,,,,,,,,,,139.44033720798325,139.44627566693816,139.44627566693816,139.44627566693816,139.44627566693816,139.44094020791817,139.44128312496468,139.44627566693816,139.44627566693816,139.5386535419384,139.82605466700625,140.03974454198033,140.03974454198033,140.05607095791493,140.05607095791493,140.25947304198053,left,0.21015499997884035,None,demo,001,2025-03-05_19h44.16.495,motion-adaptation,2024.2.4,None,2025-03-05 19h44.23.824331 -0500,
0.2,180,50,8,3,left,0.2677137500140816,None,3,8,50,11,140.2655582500156,,,,,,,,,,,,,140.259946999955,140.2655582500156,140.2655582500156,140.2655582500156,140.2655582500156,140.26061083294917,140.26090937491972,140.2655582500156,140.2655582500156,140.35921749996487,140.67249937495217,140.87306762498338,140.87306762498338,140.87306762498338,140.87306762498338,141.15614249999635,left,0.2677137500140816,None,demo,001,2025-03-05_19h44.16.495,motion-adaptation,2024.2.4,None,2025-03-05 19h44.23.824331 -0500,
0,0,51,9,3,left,0.6476408330490813,None,3,9,51,6,141.1600853749551,,,,,,,,,,,,,141.15636520797852,141.1600853749551,146.15880104200915,141.1600853749551,146.15880104200915,146.15527787501924,146.1556301669916,146.15880104200915,146.15880104200915,146.24321183294524,146.53869112499524,146.7560276669683,146.7560276669683,146.77305295795668,146.77305295795668,147.40813420794439,left,0.6476408330490813,None,demo,001,2025-03-05_19h44.16.495,motion-adaptation,2024.2.4,None,2025-03-05 19h44.23.824331 -0500,
0.3,180,52,10,3,left,0.3174224579706788,None,3,10,52,10,147.41437283298,,,,,,,,,,,,,147.40838637494016,147.41437283298,147.41437283298,147.41437283298,147.41437283298,147.40901750000194,147.4093838329427,147.41437283298,147.41437283298,147.50532845791895,147.79108020791318,148.00748333299998,148.00748333299998,148.00748333299998,148.00748333299998,148.3314416250214,left,0.3174224579706788,None,demo,001,2025-03-05_19h44.16.495,motion-adaptation,2024.2.4,None,2025-03-05 19h44.23.824331 -0500,
1,180,53,11,3,left,0.11313291697297245,None,3,11,53,7,148.3381273749983,,,,,,,,,,,,,148.33169304195326,148.3381273749983,148.3381273749983,148.3381273749983,148.3381273749983,148.3324148330139,148.3327415420208,148.3381273749983,148.3381273749983,148.42524974991102,148.72207254194655,148.94024479191285,148.94024479191285,148.94024479191285,148.94024479191285,149.05953729199246,left,0.11313291697297245,None,demo,001,2025-03-05_19h44.16.495,motion-adaptation,2024.2.4,None,2025-03-05 19h44.23.824331 -0500,
0.1,0,54,12,3,right,0.21362375002354383,None,3,12,54,5,149.07210216694511,,,,,,,,,,,,,149.05978899996262,149.07210216694511,149.07210216694511,149.07210216694511,149.07210216694511,149.06042495800648,149.0607198330108,149.07210216694511,149.07210216694511,149.15857212501578,149.45485191699117,149.67336033296306,149.67336033296306,149.67336033296306,149.67336033296306,149.89300212496892,right,0.21362375002354383,None,demo,001,2025-03-05_19h44.16.495,motion-adaptation,2024.2.4,None,2025-03-05 19h44.23.824331 -0500,
0,180,55,13,3,left,0.31860804196912795,None,3,13,55,13,149.90563345793635,,,,,,,,,,,,,149.89327766699716,149.90563345793635,154.90650608297437,149.90563345793635,154.90650608297437,154.89089308294933,154.8917355419835,154.90650608297437,154.90650608297437,155.00632549996953,155.2924127499573,155.48867379198782,155.48867379198782,155.50546725001186,155.50546725001186,155.8097582500195,left,0.31860804196912795,None,demo,001,2025-03-05_19h44.16.495,motion-adaptation,2024.2.4,None,2025-03-05 19h44.23.824331 -0500,
0.5,180,56,0,4,left,0.13151429197750986,None,4,0,56,8,155.82206116698217,,,,,,,,,,,,,155.81001395802014,155.82206116698217,155.82206116698217,155.82206116698217,155.82206116698217,155.81058845797088,155.81089737499133,155.82206116698217,155.82206116698217,155.9086164579494,156.2054694580147,156.40834816696588,156.40834816696588,156.40834816696588,156.40834816696588,156.5565371249104,left,0.13151429197750986,None,demo,001,2025-03-05_19h44.16.495,motion-adaptation,2024.2.4,None,2025-03-05 19h44.23.824331 -0500,
1,0,57,1,4,right,0.09716562496032566,None,4,1,57,0,156.56135024991818,,,,,,,,,,,,,156.5567698329687,156.56135024991818,156.56135024991818,156.56135024991818,156.56135024991818,156.557216416928,156.55745562491938,156.56135024991818,156.56135024991818,156.65535004192498,156.94301116699353,157.15623166691512,157.15623166691512,157.17283912491985,157.17283912491985,157.25769066694193,right,0.09716562496032566,None,demo,001,2025-03-05_19h44.16.495,motion-adaptation,2024.2.4,None,2025-03-05 19h44.23.824331 -0500,
0.1,0,58,2,4,right,0.269373832968995,None,4,2,58,5,157.27227487496566,,,,,,,,,,,,,157.25795849994756,157.27227487496566,157.27227487496566,157.27227487496566,157.27227487496566,157.25857283291407,157.2588969579665,157.27227487496566,157.27227487496566,157.35531474999152,157.64078662497923,157.8607423750218,157.8607423750218,157.8607423750218,157.8607423750218,158.14179879194126,right,0.269373832968995,None,demo,001,2025-03-05_19h44.16.495,motion-adaptation,2024.2.4,None,2025-03-05 19h44.23.824331 -0500,
0.3,180,59,3,4,left,0.08096341695636511,None,4,3,59,10,158.15566299995407,,,,,,,,,,,,,158.14207712491043,158.15566299995407,163.15717924991623,158.15566299995407,163.15717924991623,163.14072208292782,163.14109333301894,163.15717924991623,163.15717924991623,163.25649941700976,163.5549402500037,163.73981891700532,163.73981891700532,163.7562884580111,163.7562884580111,163.824414624949,left,0.08096341695636511,None,demo,001,2025-03-05_19h44.16.495,motion-adaptation,2024.2.4,None,2025-03-05 19h44.23.824331 -0500,
0.1,180,60,4,4,right,0.21952399995643646,None,4,4,60,12,163.83136795798782,,,,,,,,,,,,,163.82472245790996,163.83136795798782,163.83136795798782,163.83136795798782,163.83136795798782,163.82556229201145,163.82597604196053,163.83136795798782,163.83136795798782,163.92206383298617,164.2237297919346,164.44014854193665,164.44014854193665,164.44014854193665,164.44014854193665,164.67344174999744,right,0.21952399995643646,None,demo,001,2025-03-05_19h44.16.495,motion-adaptation,2024.2.4,None,2025-03-05 19h44.23.824331 -0500,
0.3,0,61,5,4,right,0.1685281249228865,None,4,5,61,3,164.6797486669384,,,,,,,,,,,,,164.67381308297627,164.6797486669384,164.6797486669384,164.6797486669384,164.6797486669384,164.67433712491766,164.6746137079317,164.6797486669384,164.6797486669384,164.7720553749241,165.07338762492873,165.28929604194127,165.28929604194127,165.28929604194127,165.28929604194127,165.4751750419382,right,0.1685281249228865,None,demo,001,2025-03-05_19h44.16.495,motion-adaptation,2024.2.4,None,2025-03-05 19h44.23.824331 -0500,
0.2,0,62,6,4,left,0.39231783302966505,None,4,6,62,4,165.48902987490874,,,,,,,,,,,,,165.4755136249587,165.48902987490874,165.48902987490874,165.48902987490874,165.48902987490874,165.47638925001957,165.47668920794968,165.48902987490874,165.48902987490874,165.57531683298294,165.88953470799606,166.0742051670095,166.0742051670095,166.0742051670095,166.0742051670095,166.47357095801271,left,0.39231783302966505,None,demo,001,2025-03-05_19h44.16.495,motion-adaptation,2024.2.4,None,2025-03-05 19h44.23.824331 -0500,
0,0,63,7,4,left,0.3595928329741582,None,4,7,63,6,166.47982683300506,,,,,,,,,,,,,166.47389895794913,166.47982683300506,171.47638704197016,166.47982683300506,171.47638704197016,171.47268995794002,171.4730976249557,171.47638704197016,171.47638704197016,171.57277991692536,171.8593771669548,172.06156633293722,172.06156633293722,172.07205270801205,172.07205270801205,172.42542737501208,left,0.3595928329741582,None,demo,001,2025-03-05_19h44.16.495,motion-adaptation,2024.2.4,None,2025-03-05 19h44.23.824331 -0500,
0.5,0,64,8,4,right,0.16883049998432398,None,4,8,64,1,172.43882079201285,,,,,,,,,,,,,172.4257132919738,172.43882079201285,172.43882079201285,172.43882079201285,172.43882079201285,172.42646174994297,172.42687941691838,172.43882079201285,172.43882079201285,172.52205920801498,172.8075344999088,173.02522712491918,173.02522712491918,173.02522712491918,173.02522712491918,173.20707204192877,right,0.16883049998432398,None,demo,001,2025-03-05_19h44.16.495,motion-adaptation,2024.2.4,None,2025-03-05 19h44.23.824331 -0500,
1,180,65,9,4,left,0.16284466697834432,None,4,9,65,7,173.21413770795334,,,,,,,,,,,,,173.20734387496486,173.21413770795334,173.21413770795334,173.21413770795334,173.21413770795334,173.20808554196265,173.2085040420061,173.21413770795334,173.21413770795334,173.30538058292586,173.59087199997157,173.822963832994,173.822963832994,173.822963832994,173.822963832994,173.99114237492904,left,0.16284466697834432,None,demo,001,2025-03-05_19h44.16.495,motion-adaptation,2024.2.4,None,2025-03-05 19h44.23.824331 -0500,
0.4,180,66,10,4,left,0.2629580000648275,None,4,10,66,9,174.0055947919609,,,,,,,,,,,,,173.99138754198793,174.0055947919609,174.0055947919609,174.0055947919609,174.0055947919609,173.99195570801385,173.99226258299313,174.0055947919609,174.0055947919609,174.0886466249358,174.3768210830167,174.5894913750235,174.5894913750235,174.60690516699106,174.60690516699106,174.85696266696323,left,0.2629580000648275,None,demo,001,2025-03-05_19h44.16.495,motion-adaptation,2024.2.4,None,2025-03-05 19h44.23.824331 -0500,
0.2,180,67,11,4,left,0.06729716702830046,None,4,11,67,11,174.86299020797014,,,,,,,,,,,,,174.85727845795918,174.86299020797014,179.85874924995005,174.86299020797014,179.85874924995005,179.85579583293293,179.8561689169146,179.85874924995005,179.85874924995005,179.94202829198912,180.23873341700528,180.44122720800806,180.44122720800806,180.45544558297843,180.45544558297843,180.5105844999198,left,0.06729716702830046,None,demo,001,2025-03-05_19h44.16.495,motion-adaptation,2024.2.4,None,2025-03-05 19h44.23.824331 -0500,
0,180,68,12,4,left,0.2857496249489486,None,4,12,68,13,180.52203037496656,,,,,,,,,,,,,180.51083183300216,180.52203037496656,180.52203037496656,180.52203037496656,180.52203037496656,180.51171820797026,180.51204079191666,180.52203037496656,180.52203037496656,180.60930324997753,180.9229693330126,181.10635220794939,181.10635220794939,181.1231274579186,181.1231274579186,181.40795929194428,left,0.2857496249489486,None,demo,001,2025-03-05_19h44.16.495,motion-adaptation,2024.2.4,None,2025-03-05 19h44.23.824331 -0500,
0.4,0,69,13,4,right,0.2207025419920683,None,4,13,69,2,181.42228212498594,,,,,,,,,,,,,181.40821045800112,181.42228212498594,181.42228212498594,181.42228212498594,181.42228212498594,181.40878970792983,181.40910599997733,181.42228212498594,181.42228212498594,181.52308424992952,181.82206674991176,182.00544729200192,182.00544729200192,182.00826320797205,182.00826320797205,182.2278609579662,right,0.2207025419920683,None,demo,001,2025-03-05_19h44.16.495,motion-adaptation,2024.2.4,None,2025-03-05 19h44.23.824331 -0500,
0,180,70,0,5,left,0.1764555840054527,None,5,0,70,13,182.23873358301353,,,,,,,,,,,,,182.2280774579849,182.23873358301353,182.23873358301353,182.23873358301353,182.23873358301353,182.22862004197668,182.22904420795385,182.23873358301353,182.23873358301353,182.32519645791035,182.62210245791357,182.82437008293346,182.82437008293346,182.82437008293346,182.82437008293346,183.0071254170034,left,0.1764555840054527,None,demo,001,2025-03-05_19h44.16.495,motion-adaptation,2024.2.4,None,2025-03-05 19h44.23.824331 -0500,
0.3,180,71,1,5,left,0.1509205000475049,None,5,1,71,10,183.01359479199164,,,,,,,,,,,,,183.00748041691259,183.01359479199164,188.02323674992658,183.01359479199164,188.02323674992658,188.00722199992742,188.00802937499247,188.02323674992658,188.02323674992658,188.10539012495428,188.40596937492955,188.60628145793453,188.60628145793453,188.62316049996298,188.62316049996298,188.776047708001,left,0.1509205000475049,None,demo,001,2025-03-05_19h44.16.495,motion-adaptation,2024.2.4,None,2025-03-05 19h44.23.824331 -0500,
0.1,0,72,2,5,right,0.25031633395701647,None,5,2,72,5,188.78891729190946,,,,,,,,,,,,,188.77634733298328,188.78891729190946,188.78891729190946,188.78891729190946,188.78891729190946,188.7769902079599,188.77732499991544,188.78891729190946,188.78891729190946,188.87497508293018,189.17211237491574,189.3741426669294,189.3741426669294,189.3741426669294,189.3741426669294,189.64119749993552,right,0.25031633395701647,None,demo,001,2025-03-05_19h44.16.495,motion-adaptation,2024.2.4,None,2025-03-05 19h44.23.824331 -0500,
0.4,0,73,3,5,right,0.2663422500481829,None,5,3,73,2,189.65569458296522,,,,,,,,,,,,,189.64149099995848,189.65569458296522,189.65569458296522,189.65569458296522,189.65569458296522,189.6422339999117,189.64262241695542,189.65569458296522,189.65569458296522,189.73878529202193,190.02516091696452,190.2416556669632,190.2416556669632,190.2416556669632,190.2416556669632,190.52412408299278,right,0.2663422500481829,None,demo,001,2025-03-05_19h44.16.495,motion-adaptation,2024.2.4,None,2025-03-05 19h44.23.824331 -0500,
0.2,180,74,4,5,left,0.33549254189711064,None,5,4,74,11,190.53902566700708,,,,,,,,,,,,,190.5243517080089,190.53902566700708,190.53902566700708,190.53902566700708,190.53902566700708,190.52492649992928,190.52523475000635,190.53902566700708,190.53902566700708,190.62209700001404,190.90757624991238,191.1283662499627,191.1283662499627,191.1283662499627,191.1283662499627,191.47343429201283,left,0.33549254189711064,None,demo,001,2025-03-05_19h44.16.495,motion-adaptation,2024.2.4,None,2025-03-05 19h44.23.824331 -0500,
0,0,75,5,5,left,0.020450083073228598,None,5,5,75,6,191.47928487497848,,,,,,,,,,,,,191.4737378329737,191.47928487497848,196.4903925419785,191.47928487497848,196.4903925419785,196.47367554192897,196.47402541700285,196.4903925419785,196.4903925419785,196.59032904193737,196.88874329195824,197.0719930829946,197.0719930829946,197.08984241692815,197.08984241692815,197.11045999999624,left,0.020450083073228598,None,demo,001,2025-03-05_19h44.16.495,motion-adaptation,2024.2.4,None,2025-03-05 19h44.23.824331 -0500,
0.3,0,76,6,5,right,0.4751469170441851,None,5,6,76,3,197.1222330419114,,,,,,,,,,,,,197.11087099998258,197.1222330419114,197.1222330419114,197.1222330419114,197.1222330419114,197.11162416695151,197.1119235419901,197.1222330419114,197.1222330419114,197.21088462497573,197.52269062492996,197.70545408292674,197.70545408292674,197.7086736250203,197.7086736250203,198.18967270792928,right,0.4751469170441851,None,demo,001,2025-03-05_19h44.16.495,motion-adaptation,2024.2.4,None,2025-03-05 19h44.23.824331 -0500,
0.4,180,77,7,5,left,0.10288070898968726,None,5,7,77,9,198.19596033298876,,,,,,,,,,,,,198.18990545801353,198.19596033298876,198.19596033298876,198.19596033298876,198.19596033298876,198.19048304192256,198.19093120796606,198.19596033298876,198.19596033298876,198.28871654195245,198.5748775829561,198.78855404199567,198.78855404199567,198.79301141691394,198.79301141691394,198.89305187494028,left,0.10288070898968726,None,demo,001,2025-03-05_19h44.16.495,motion-adaptation,2024.2.4,None,2025-03-05 19h44.23.824331 -0500,
0.5,0,78,8,5,right,0.1541388330515474,None,5,8,78,1,198.90538283297792,,,,,,,,,,,,,198.89324304193724,198.90538283297792,198.90538283297792,198.90538283297792,198.90538283297792,198.89390466699842,198.89418479194865,198.90538283297792,198.90538283297792,198.99279495794326,199.29097758291755,199.49100041692145,199.49100041692145,199.49100041692145,199.49100041692145,199.65665708296,right,0.1541388330515474,None,demo,001,2025-03-05_19h44.16.495,motion-adaptation,2024.2.4,None,2025-03-05 19h44.23.824331 -0500,
0.2,0,79,9,5,right,0.5118172090733424,None,5,9,79,4,199.66286487493198,,,,,,,,,,,,,199.65691570797935,199.66286487493198,204.65889033291023,199.66286487493198,204.65889033291023,204.6560035829898,204.65627720800694,204.65889033291023,204.65889033291023,204.74214266694617,205.03869229194243,205.24108166701626,205.24108166701626,205.2576654580189,205.2576654580189,205.7555771250045,right,0.5118172090733424,None,demo,001,2025-03-05_19h44.16.495,motion-adaptation,2024.2.4,None,2025-03-05 19h44.23.824331 -0500,
1,0,80,10,5,right,0.2563278750749305,None,5,10,80,0,205.75888716697227,,,,,,,,,,,,,205.75568316702265,205.75888716697227,205.75888716697227,205.75888716697227,205.75888716697227,205.75598245800938,205.75616391701624,205.75888716697227,205.75888716697227,205.85536824993324,206.14251399994828,206.34354375000112,206.34354375000112,206.35538954194635,206.35538954194635,206.6067684579175,right,0.2563278750749305,None,demo,001,2025-03-05_19h44.16.495,motion-adaptation,2024.2.4,None,2025-03-05 19h44.23.824331 -0500,
0.5,180,81,11,5,left,0.12128712504636496,None,5,11,81,8,206.61299699998926,,,,,,,,,,,,,206.60699470795225,206.61299699998926,206.61299699998926,206.61299699998926,206.61299699998926,206.60768291691784,206.6080719579477,206.61299699998926,206.61299699998926,206.70530479191802,206.990965917008,207.2052931250073,207.2052931250073,207.20784883294255,207.20784883294255,207.341694374918,left,0.12128712504636496,None,demo,001,2025-03-05_19h44.16.495,motion-adaptation,2024.2.4,None,2025-03-05 19h44.23.824331 -0500,
1,180,82,12,5,left,0.16649149998556823,None,5,12,82,7,207.3556699999608,,,,,,,,,,,,,207.34193579200655,207.3556699999608,207.3556699999608,207.3556699999608,207.3556699999608,207.3425930829253,207.34289679198992,207.3556699999608,207.3556699999608,207.43872995791025,207.72522383299656,207.94171829195693,207.94171829195693,207.94171829195693,207.94171829195693,208.12385891692247,left,0.16649149998556823,None,demo,001,2025-03-05_19h44.16.495,motion-adaptation,2024.2.4,None,2025-03-05 19h44.23.824331 -0500,
0.1,180,83,13,5,right,0.36046845896635205,None,5,13,83,12,208.13016370800324,,,,,,,,,,,,,208.12409733294044,208.13016370800324,213.13966987491585,208.13016370800324,213.13966987491585,213.12459633301478,213.12546020792797,213.13966987491585,213.13966987491585,213.23975683294702,213.5251372079365,213.7392087499611,213.7392087499611,213.7392087499611,213.7392087499611,214.10731083294377,right,0.36046845896635205,None,demo,001,2025-03-05_19h44.16.495,motion-adaptation,2024.2.4,None,2025-03-05 19h44.23.824331 -0500,
0.5,0,84,0,6,left,0.34721166593953967,None,6,0,84,1,214.1136184579227,,,,,,,,,,,,,214.10755866696127,214.1136184579227,214.1136184579227,214.1136184579227,214.1136184579227,214.1081580829341,214.10849924990907,214.1136184579227,214.1136184579227,214.20549233292695,214.4936639999505,214.72341241699178,214.72341241699178,214.72341241699178,214.72341241699178,215.07364616694394,left,0.34721166593953967,None,demo,001,2025-03-05_19h44.16.495,motion-adaptation,2024.2.4,None,2025-03-05 19h44.23.824331 -0500,
1,180,85,1,6,left,0.204601833014749,None,6,1,85,7,215.07965670793783,,,,,,,,,,,,,215.07395087496843,215.07965670793783,215.07965670793783,215.07965670793783,215.07965670793783,215.07452837494202,215.07482562493533,215.07965670793783,215.07965670793783,215.17214475001674,215.459391625016,215.6892294170102,215.6892294170102,215.6892294170102,215.6892294170102,215.9093929999508,left,0.204601833014749,None,demo,001,2025-03-05_19h44.16.495,motion-adaptation,2024.2.4,None,2025-03-05 19h44.23.824331 -0500,
1,0,86,2,6,right,0.07129137509036809,None,6,2,86,0,215.92223816690966,,,,,,,,,,,,,215.9096519999439,215.92223816690966,215.92223816690966,215.92223816690966,215.92223816690966,215.9103310420178,215.91063620802015,215.92223816690966,215.92223816690966,216.00544091698248,216.306247707922,216.52319283294491,216.52319283294491,216.52319283294491,216.52319283294491,216.60794758296106,right,0.07129137509036809,None,demo,001,2025-03-05_19h44.16.495,motion-adaptation,2024.2.4,None,2025-03-05 19h44.23.824331 -0500,
0,180,87,3,6,left,0.42140204191673547,None,6,3,87,13,216.6224154579686,,,,,,,,,,,,,216.60827504191548,216.6224154579686,221.62306079198606,216.6224154579686,221.62306079198606,221.6070501250215,221.60739787493367,221.62306079198606,221.62306079198606,221.70709325000644,222.00688637502026,222.20543720794376,222.20543720794376,222.2083161670016,222.2083161670016,222.64258216693997,left,0.42140204191673547,None,demo,001,2025-03-05_19h44.16.495,motion-adaptation,2024.2.4,None,2025-03-05 19h44.23.824331 -0500,
0.4,0,88,4,6,right,0.2015226660296321,None,6,4,88,2,222.65560570801608,,,,,,,,,,,,,222.64286291692406,222.65560570801608,222.65560570801608,222.65560570801608,222.65560570801608,222.64358516701031,222.64393187500536,222.65560570801608,222.65560570801608,222.7420375419315,223.03874387498945,223.2388032079907,223.2388032079907,223.24253966694232,223.24253966694232,223.44279070792254,right,0.2015226660296321,None,demo,001,2025-03-05_19h44.16.495,motion-adaptation,2024.2.4,None,2025-03-05 19h44.23.824331 -0500,
0.2,180,89,5,6,left,0.21215949999168515,None,6,5,89,11,223.45547454198822,,,,,,,,,,,,,223.44308566697873,223.45547454198822,223.45547454198822,223.45547454198822,223.45547454198822,223.4437064579688,223.4439932500245,223.45547454198822,223.45547454198822,223.5411704169819,223.83881554193795,224.039297832991,224.039297832991,224.0431047079619,224.0431047079619,224.2589934170246,left,0.21215949999168515,None,demo,001,2025-03-05_19h44.16.495,motion-adaptation,2024.2.4,None,2025-03-05 19h44.23.824331 -0500,
0.5,180,90,6,6,left,0.19593829195946455,None,6,6,90,8,224.27233316691127,,,,,,,,,,,,,224.25923341698945,224.27233316691127,224.27233316691127,224.27233316691127,224.27233316691127,224.2598253749311,224.26012200000696,224.27233316691127,224.27233316691127,224.35836829198524,224.65533466695342,224.85817445791326,224.85817445791326,224.85817445791326,224.85817445791326,225.0589052499272,left,0.19593829195946455,None,demo,001,2025-03-05_19h44.16.495,motion-adaptation,2024.2.4,None,2025-03-05 19h44.23.824331 -0500,
0,0,91,7,6,left,0.1308107499498874,None,6,7,91,6,225.0717725829454,,,,,,,,,,,,,225.05918291700073,225.0717725829454,230.07231712492649,225.0717725829454,230.07231712492649,230.05750033294316,230.0578749999404,230.07231712492649,230.07231712492649,230.1555271249963,230.456190124969,230.6555022499524,230.6555022499524,230.6583634999115,230.6583634999115,230.79049120796844,left,0.1308107499498874,None,demo,001,2025-03-05_19h44.16.495,motion-adaptation,2024.2.4,None,2025-03-05 19h44.23.824331 -0500,
0.4,180,92,8,6,left,0.11745958309620619,None,6,8,92,9,230.79651675000787,,,,,,,,,,,,,230.790724667022,230.79651675000787,230.79651675000787,230.79651675000787,230.79651675000787,230.79134512494784,230.79170983296353,230.79651675000787,230.79651675000787,230.88874608301558,231.17445841699373,231.40706229198258,231.40706229198258,231.40706229198258,231.40706229198258,231.52849620801862,left,0.11745958309620619,None,demo,001,2025-03-05_19h44.16.495,motion-adaptation,2024.2.4,None,2025-03-05 19h44.23.824331 -0500,
0.1,180,93,9,6,left,0.20163437502924353,None,6,9,93,12,231.53890595794655,,,,,,,,,,,,,231.52875049994327,231.53890595794655,231.53890595794655,231.53890595794655,231.53890595794655,231.52949487499427,231.52980924991425,231.53890595794655,231.53890595794655,231.62538295798004,231.92209895793349,232.12585487496108,232.12585487496108,232.12585487496108,232.12585487496108,232.33988958294503,left,0.20163437502924353,None,demo,001,2025-03-05_19h44.16.495,motion-adaptation,2024.2.4,None,2025-03-05 19h44.23.824331 -0500,
0.3,0,94,10,6,right,0.12751358293462545,None,6,10,94,3,232.34338683297392,,,,,,,,,,,,,232.34003620792646,232.34338683297392,232.34338683297392,232.34338683297392,232.34338683297392,232.34036329202354,232.34054491692223,232.34338683297392,232.34338683297392,232.4380924999714,232.7249586249236,232.93820508301724,232.93820508301724,232.9417545829201,232.9417545829201,233.07666991697624,right,0.12751358293462545,None,demo,001,2025-03-05_19h44.16.495,motion-adaptation,2024.2.4,None,2025-03-05 19h44.23.824331 -0500,
0.3,180,95,11,6,left,0.15028883307240903,None,6,11,95,10,233.08905279194005,,,,,,,,,,,,,233.07698925002478,233.08905279194005,238.07542070792988,233.08905279194005,238.07542070792988,238.0725145000033,238.07289091695566,238.07542070792988,238.07542070792988,238.15941066702362,238.47293141693808,238.65873370796908,238.65873370796908,238.67220912501216,238.67220912501216,238.8120083749527,left,0.15028883307240903,None,demo,001,2025-03-05_19h44.16.495,motion-adaptation,2024.2.4,None,2025-03-05 19h44.23.824331 -0500,
0.2,0,96,12,6,right,0.44392675010021776,None,6,12,96,4,238.82205249997787,,,,,,,,,,,,,238.8122755419463,238.82205249997787,238.82205249997787,238.82205249997787,238.82205249997787,238.81324112496804,238.81362679193262,238.82205249997787,238.82205249997787,238.90844070794992,239.20543616695795,239.4230027080048,239.4230027080048,239.4230027080048,239.4230027080048,239.87575387500692,right,0.44392675010021776,None,demo,001,2025-03-05_19h44.16.495,motion-adaptation,2024.2.4,None,2025-03-05 19h44.23.824331 -0500,
0.1,0,97,13,6,left,0.3513575419783592,None,6,13,97,5,239.88899662496988,,,,,,,,,,,,,239.8760034579318,239.88899662496988,239.88899662496988,239.88899662496988,239.88899662496988,239.87712408299558,239.8774315000046,239.88899662496988,239.88899662496988,239.9750534169143,240.289767417009,240.48964245792013,240.48964245792013,240.48964245792013,240.48964245792013,240.85999091691338,left,0.3513575419783592,None,demo,001,2025-03-05_19h44.16.495,motion-adaptation,2024.2.4,None,2025-03-05 19h44.23.824331 -0500,
0.3,180,98,0,7,left,0.22173887502867728,None,7,0,98,10,240.87255224992987,,,,,,,,,,,,,240.86021020798944,240.87255224992987,240.87255224992987,240.87255224992987,240.87255224992987,240.860881416942,240.86118387500755,240.87255224992987,240.87255224992987,240.95735512499232,241.2554721669294,241.45849495800212,241.45849495800212,241.45849495800212,241.45849495800212,241.69128329202067,left,0.22173887502867728,None,demo,001,2025-03-05_19h44.16.495,motion-adaptation,2024.2.4,None,2025-03-05 19h44.23.824331 -0500,
0.2,180,99,1,7,left,0.08620504196733236,None,7,1,99,11,241.70579191693105,,,,,,,,,,,,,241.69154004193842,241.70579191693105,246.69468683295418,241.70579191693105,246.69468683295418,246.6907764999196,246.69148724991828,246.69468683295418,246.69468683295418,246.78880062501412,247.07499224995263,247.28889483294915,247.28889483294915,247.29270616697613,247.29270616697613,247.37743520794902,left,0.08620504196733236,None,demo,001,2025-03-05_19h44.16.495,motion-adaptation,2024.2.4,None,2025-03-05 19h44.23.824331 -0500,
0.4,180,100,2,7,left,0.06402212497778237,None,7,2,100,9,247.38878491695505,,,,,,,,,,,,,247.3776639580028,247.38878491695505,247.38878491695505,247.38878491695505,247.38878491695505,247.37823041691445,247.37861499993596,247.38878491695505,247.38878491695505,247.4752974580042,247.77205579192378,247.97680029191542,247.97680029191542,247.97680029191542,247.97680029191542,248.04206624999642,left,0.06402212497778237,None,demo,001,2025-03-05_19h44.16.495,motion-adaptation,2024.2.4,None,2025-03-05 19h44.23.824331 -0500,
0,180,101,3,7,right,0.4706612500594929,None,7,3,101,13,248.05460420798045,,,,,,,,,,,,,248.0421810830012,248.05460420798045,248.05460420798045,248.05460420798045,248.05460420798045,248.04249783291016,248.0426782919094,248.05460420798045,248.05460420798045,248.14027754194103,248.4387256669579,248.63829866691958,248.63829866691958,248.64181641698815,248.64181641698815,249.11167091701645,right,0.4706612500594929,None,demo,001,2025-03-05_19h44.16.495,motion-adaptation,2024.2.4,None,2025-03-05 19h44.23.824331 -0500,
0.5,0,102,4,7,right,0.1395794169511646,None,7,4,102,1,249.12211687501986,,,,,,,,,,,,,249.11192099994514,249.12211687501986,249.12211687501986,249.12211687501986,249.12211687501986,249.11259462498128,249.11298808292486,249.12211687501986,249.12211687501986,249.20887566695455,249.50548904191237,249.7226378750056,249.7226378750056,249.7226378750056,249.7226378750056,249.8746172079118,right,0.1395794169511646,None,demo,001,2025-03-05_19h44.16.495,motion-adaptation,2024.2.4,None,2025-03-05 19h44.23.824331 -0500,
0.2,0,103,5,7,right,0.4971415839390829,None,7,5,103,4,249.88899312494323,,,,,,,,,,,,,249.87493779195938,249.88899312494323,254.87538891693112,249.88899312494323,254.87538891693112,254.8724766250234,254.87278849992435,254.87538891693112,254.87538891693112,254.95805562497117,255.2554683330236,255.47322516702116,255.47322516702116,255.48989254201297,255.48989254201297,255.97514679201413,right,0.4971415839390829,None,demo,001,2025-03-05_19h44.16.495,motion-adaptation,2024.2.4,None,2025-03-05 19h44.23.824331 -0500,
0.1,0,104,6,7,left,0.12066887505352497,None,7,6,104,5,255.9818150419742,,,,,,,,,,,,,255.9754461669363,255.9818150419742,255.9818150419742,255.9818150419742,255.9818150419742,255.97621145797893,255.97658633301035,255.9818150419742,255.9818150419742,256.07433137495536,256.3720698750112,256.5895745829912,256.5895745829912,256.5895745829912,256.5895745829912,256.7238550420152,left,0.12066887505352497,None,demo,001,2025-03-05_19h44.16.495,motion-adaptation,2024.2.4,None,2025-03-05 19h44.23.824331 -0500,
0.3,0,105,7,7,right,0.20296654105186462,None,7,7,105,3,256.72985916701145,,,,,,,,,,,,,256.7241128749447,256.72985916701145,256.72985916701145,256.72985916701145,256.72985916701145,256.7250057499623,256.72533745795954,256.72985916701145,256.72985916701145,256.822110582958,257.1086260419106,257.32209258293733,257.32209258293733,257.32497629197314,257.32497629197314,257.5296850419836,right,0.20296654105186462,None,demo,001,2025-03-05_19h44.16.495,motion-adaptation,2024.2.4,None,2025-03-05 19h44.23.824331 -0500,
1,180,106,8,7,left,0.22149129200261086,None,7,8,106,7,257.5382760829525,,,,,,,,,,,,,257.52998016693164,257.5382760829525,257.5382760829525,257.5382760829525,257.5382760829525,257.53070745791774,257.53099499992095,257.5382760829525,257.5382760829525,257.6248982499819,257.92214016697835,258.12457829201594,258.12457829201594,258.12457829201594,258.12457829201594,258.356845082948,left,0.22149129200261086,None,demo,001,2025-03-05_19h44.16.495,motion-adaptation,2024.2.4,None,2025-03-05 19h44.23.824331 -0500,
1,0,107,9,7,right,0.06678845803253353,None,7,9,107,0,258.36260616697837,,,,,,,,,,,,,258.35706916695926,258.36260616697837,263.3596624999773,258.36260616697837,263.3596624999773,263.35598449991085,263.35640099993907,263.3596624999773,263.3596624999773,263.4568885419285,263.7554936669767,263.94183199992403,263.94183199992403,263.960110166925,263.960110166925,264.0246846670052,right,0.06678845803253353,None,demo,001,2025-03-05_19h44.16.495,motion-adaptation,2024.2.4,None,2025-03-05 19h44.23.824331 -0500,
0.1,180,108,10,7,left,0.1844237920595333,None,7,10,108,12,264.0390475000022,,,,,,,,,,,,,264.0249543329701,264.0390475000022,264.0390475000022,264.0390475000022,264.0390475000022,264.02571404201444,264.0260574169224,264.0390475000022,264.0390475000022,264.1221574579831,264.4086293330183,264.64004712493625,264.64004712493625,264.64004712493625,264.64004712493625,264.840839624987,left,0.1844237920595333,None,demo,001,2025-03-05_19h44.16.495,motion-adaptation,2024.2.4,None,2025-03-05 19h44.23.824331 -0500,
0.4,0,109,11,7,right,0.170102332951501,None,7,11,109,2,264.85573900002055,,,,,,,,,,,,,264.84107224992476,264.85573900002055,264.85573900002055,264.85573900002055,264.85573900002055,264.8417447080137,264.8420566249406,264.85573900002055,264.85573900002055,264.938800791977,265.2245460000122,265.45668020797893,265.45668020797893,265.45668020797893,265.45668020797893,265.6404922079528,right,0.170102332951501,None,demo,001,2025-03-05_19h44.16.495,motion-adaptation,2024.2.4,None,2025-03-05 19h44.23.824331 -0500,
0.5,180,110,12,7,left,0.26892004208639264,None,7,12,110,8,265.6471230830066,,,,,,,,,,,,,265.64074649999384,265.6471230830066,265.6471230830066,265.6471230830066,265.6471230830066,265.6415048749186,265.6419228329323,265.6471230830066,265.6471230830066,265.7388774579158,266.02540620800573,266.2388420419302,266.2388420419302,266.24217887502164,266.24217887502164,266.50994491693564,left,0.26892004208639264,None,demo,001,2025-03-05_19h44.16.495,motion-adaptation,2024.2.4,None,2025-03-05 19h44.23.824331 -0500,
0,0,111,13,7,left,0.20095075003337115,None,7,13,111,6,266.52214112493675,,,,,,,,,,,,,266.51019529195037,266.52214112493675,271.5237293749815,266.52214112493675,271.5237293749815,271.5074292499339,271.50777487491723,271.5237293749815,271.5237293749815,271.6062126669567,271.9061060419772,272.1234955419786,272.1234955419786,272.1234955419786,272.1234955419786,272.34170537500177,left,0.20095075003337115,None,demo,001,2025-03-05_19h44.16.495,motion-adaptation,2024.2.4,None,2025-03-05 19h44.23.824331 -0500,
1,0,112,0,8,right,0.21757262502796948,None,8,0,112,0,272.35577504197136,,,,,,,,,,,,,272.3420350829838,272.35577504197136,272.35577504197136,272.35577504197136,272.35577504197136,272.3427408329444,272.343075916986,272.35577504197136,272.35577504197136,272.44201091700234,272.75631445797626,272.9564853749471,272.9564853749471,272.9564853749471,272.9564853749471,273.17659366701264,right,0.21757262502796948,None,demo,001,2025-03-05_19h44.16.495,motion-adaptation,2024.2.4,None,2025-03-05 19h44.23.824331 -0500,
0.5,180,113,1,8,left,0.11800216697156429,None,8,1,113,8,273.18880899995565,,,,,,,,,,,,,273.1768995419843,273.18880899995565,273.18880899995565,273.18880899995565,273.18880899995565,273.17766362498514,273.1779392500175,273.18880899995565,273.18880899995565,273.27549208293203,273.57356199994683,273.7896274999948,273.7896274999948,273.7896274999948,273.7896274999948,273.9094824169297,left,0.11800216697156429,None,demo,001,2025-03-05_19h44.16.495,motion-adaptation,2024.2.4,None,2025-03-05 19h44.23.824331 -0500,
0.5,0,114,2,8,right,0.23679604101926088,None,8,2,114,1,273.922219207976,,,,,,,,,,,,,273.90973091695923,273.922219207976,273.922219207976,273.922219207976,273.922219207976,273.91032079199795,273.9106078329496,273.922219207976,273.922219207976,274.00846604199614,274.30546900001355,274.5103255829308,274.5103255829308,274.5103255829308,274.5103255829308,274.7577828329522,right,0.23679604101926088,None,demo,001,2025-03-05_19h44.16.495,motion-adaptation,2024.2.4,None,2025-03-05 19h44.23.824331 -0500,
0.2,0,115,3,8,left,0.7618799170013517,None,8,3,115,4,274.7722079579253,,,,,,,,,,,,,274.7580074999714,274.7722079579253,279.7597614999395,274.7722079579253,279.7597614999395,279.756036708015,279.75639779202174,279.7597614999395,279.7597614999395,279.85664399992675,280.15545829199255,280.3561717920238,280.3561717920238,280.37277274997905,280.37277274997905,281.1247654169565,left,0.7618799170013517,None,demo,001,2025-03-05_19h44.16.495,motion-adaptation,2024.2.4,None,2025-03-05 19h44.23.824331 -0500,
0.3,0,116,4,8,right,0.1562200830085203,None,8,4,116,3,281.139165416942,,,,,,,,,,,,,281.1250880419975,281.139165416942,281.139165416942,281.139165416942,281.139165416942,281.1257187919691,281.1260384169873,281.139165416942,281.139165416942,281.2246645829873,281.52216766693164,281.74009154201485,281.74009154201485,281.74009154201485,281.74009154201485,281.9067767079687,right,0.1562200830085203,None,demo,001,2025-03-05_19h44.16.495,motion-adaptation,2024.2.4,None,2025-03-05 19h44.23.824331 -0500,
1,180,117,5,8,left,0.155896499985829,None,8,5,117,7,281.91204391699284,,,,,,,,,,,,,281.9070001669461,281.91204391699284,281.91204391699284,281.91204391699284,281.91204391699284,281.9075482080225,281.90784674999304,281.91204391699284,281.91204391699284,282.0054917499656,282.2915979169775,282.4950441669207,282.4950441669207,282.5056460829219,282.5056460829219,282.65701479197014,left,0.155896499985829,None,demo,001,2025-03-05_19h44.16.495,motion-adaptation,2024.2.4,None,2025-03-05 19h44.23.824331 -0500,
0,0,118,6,8,left,0.5432662079110742,None,8,6,118,6,282.6636733330088,,,,,,,,,,,,,282.6572544169612,282.6636733330088,282.6636733330088,282.6636733330088,282.6636733330088,282.65797499998007,282.6584321249975,282.6636733330088,282.6636733330088,282.75547450000886,283.04168004193343,283.27378299995326,283.27378299995326,283.27378299995326,283.27378299995326,283.82370545796584,left,0.5432662079110742,None,demo,001,2025-03-05_19h44.16.495,motion-adaptation,2024.2.4,None,2025-03-05 19h44.23.824331 -0500,
0,180,119,7,8,left,0.08208504191134125,None,8,7,119,13,283.82972512498964,,,,,,,,,,,,,283.82404620794114,283.82972512498964,288.82646291691344,283.82972512498964,288.82646291691344,288.8225869999733,288.8229307079455,288.82646291691344,288.82646291691344,288.9233296669554,289.22191170800943,289.4093604579102,289.4093604579102,289.4225514170248,289.4225514170248,289.4934850829886,left,0.08208504191134125,None,demo,001,2025-03-05_19h44.16.495,motion-adaptation,2024.2.4,None,2025-03-05 19h44.23.824331 -0500,
0.4,0,120,8,8,right,0.16379529202822596,None,8,8,120,2,289.5054408329306,,,,,,,,,,,,,289.49372579192277,289.5054408329306,289.5054408329306,289.5054408329306,289.5054408329306,289.49430258292705,289.4946524580009,289.5054408329306,289.5054408329306,289.59136266692076,289.88887929194607,290.1061754169641,290.1061754169641,290.1061754169641,290.1061754169641,290.2734549170127,right,0.16379529202822596,None,demo,001,2025-03-05_19h44.16.495,motion-adaptation,2024.2.4,None,2025-03-05 19h44.23.824331 -0500,
0.3,180,121,9,8,left,0.24167437490541488,None,8,9,121,10,290.27923345798627,,,,,,,,,,,,,290.2737638329854,290.27923345798627,290.27923345798627,290.27923345798627,290.27923345798627,290.27433883294,290.2746401249897,290.27923345798627,290.27923345798627,290.37221166701056,290.65793658292387,290.87217124993913,290.87217124993913,290.87480566697195,290.87480566697195,291.1267682919279,left,0.24167437490541488,None,demo,001,2025-03-05_19h44.16.495,motion-adaptation,2024.2.4,None,2025-03-05 19h44.23.824331 -0500,
0.1,0,122,10,8,right,0.315832499996759,None,8,10,122,5,291.1390972499503,,,,,,,,,,,,,291.12725387501996,291.1390972499503,291.1390972499503,291.1390972499503,291.1390972499503,291.1279561249539,291.12827149999794,291.1390972499503,291.1390972499503,291.224850541912,291.5221010829555,291.7252960000187,291.7252960000187,291.7252960000187,291.7252960000187,292.05636624991894,right,0.315832499996759,None,demo,001,2025-03-05_19h44.16.495,motion-adaptation,2024.2.4,None,2025-03-05 19h44.23.824331 -0500,
0.1,180,123,11,8,left,0.3251955419545993,None,8,11,123,12,292.05990129197016,,,,,,,,,,,,,292.05660274997354,292.05990129197016,297.0609092079103,292.05990129197016,297.0609092079103,297.05764470796566,297.0580384170171,297.0609092079103,297.0609092079103,297.1614736249903,297.4729121249402,297.6555871249875,297.6555871249875,297.6584749999456,297.6584749999456,297.99311095802113,left,0.3251955419545993,None,demo,001,2025-03-05_19h44.16.495,motion-adaptation,2024.2.4,None,2025-03-05 19h44.23.824331 -0500,
0.2,180,124,12,8,left,0.24057287501636893,None,8,12,124,11,298.00574437493924,,,,,,,,,,,,,297.9933841669699,298.00574437493924,298.00574437493924,298.00574437493924,298.00574437493924,297.9940391249256,297.9944448330207,298.00574437493924,298.00574437493924,298.0931725829141,298.3926252919482,298.5920077499468,298.5920077499468,298.5920077499468,298.5920077499468,298.8412089579506,left,0.24057287501636893,None,demo,001,2025-03-05_19h44.16.495,motion-adaptation,2024.2.4,None,2025-03-05 19h44.23.824331 -0500,
0.4,180,125,13,8,left,0.11790745903272182,None,8,13,125,9,298.85576316691004,,,,,,,,,,,,,298.8414837499149,298.85576316691004,298.85576316691004,298.85576316691004,298.85576316691004,298.84220591699705,298.84259337501135,298.85576316691004,298.85576316691004,298.93882837495767,299.2245037499815,299.4568535829894,299.4568535829894,299.4568535829894,299.4568535829894,299.59380287502427,left,0.11790745903272182,None,demo,001,2025-03-05_19h44.16.495,motion-adaptation,2024.2.4,None,2025-03-05 19h44.23.824331 -0500,
0.1,0,126,0,9,left,0.35561941703781486,None,9,0,126,5,299.60576750000473,,,,,,,,,,,,,299.59432137501426,299.60576750000473,299.60576750000473,299.60576750000473,299.60576750000473,299.59501283301506,299.595315958024,299.60576750000473,299.60576750000473,299.6921089999378,299.9898934169905,300.191853749915,300.191853749915,300.191853749915,300.191853749915,300.5577742080204,left,0.35561941703781486,None,demo,001,2025-03-05_19h44.16.495,motion-adaptation,2024.2.4,None,2025-03-05 19h44.23.824331 -0500,
0.2,180,127,1,9,left,0.07324054196942598,None,9,1,127,11,300.5724465419771,,,,,,,,,,,,,300.5580294999527,300.5724465419771,305.5614585420117,300.5724465419771,305.5614585420117,305.5569521249272,305.5576456669951,305.5614585420117,305.5614585420117,305.65554520802107,305.9411138750147,306.1555027499562,306.1555027499562,306.15904445794877,306.15904445794877,306.24035524996,left,0.07324054196942598,None,demo,001,2025-03-05_19h44.16.495,motion-adaptation,2024.2.4,None,2025-03-05 19h44.23.824331 -0500,
0,0,128,2,9,left,0.19442729197908193,None,9,2,128,6,306.2465722919442,,,,,,,,,,,,,306.2406093329191,306.2465722919442,306.2465722919442,306.2465722919442,306.2465722919442,306.24123616691213,306.2415519169299,306.2465722919442,306.2465722919442,306.3387134169461,306.62438783294056,306.85697766696103,306.85697766696103,306.85697766696103,306.85697766696103,307.05704899993725,left,0.19442729197908193,None,demo,001,2025-03-05_19h44.16.495,motion-adaptation,2024.2.4,None,2025-03-05 19h44.23.824331 -0500,
0.2,0,129,3,9,right,0.9506500840652734,None,9,3,129,4,307.06357849994674,,,,,,,,,,,,,307.05738445802126,307.06357849994674,307.06357849994674,307.06357849994674,307.06357849994674,307.0581637499854,307.0585340419784,307.06357849994674,307.06357849994674,307.1555730419932,307.4415457500145,307.6563174999319,307.6563174999319,307.6601002080133,307.6601002080133,308.6095834169537,right,0.9506500840652734,None,demo,001,2025-03-05_19h44.16.495,motion-adaptation,2024.2.4,None,2025-03-05 19h44.23.824331 -0500,
0,180,130,4,9,left,0.16861349996179342,None,9,4,130,13,308.6221907919971,,,,,,,,,,,,,308.60982862499077,308.6221907919971,308.6221907919971,308.6221907919971,308.6221907919971,308.610952249961,308.61132891697343,308.6221907919971,308.6221907919971,308.7082119169645,309.0054174999241,309.20622724993154,309.20622724993154,309.22310154198203,309.22310154198203,309.3815558749484,left,0.16861349996179342,None,demo,001,2025-03-05_19h44.16.495,motion-adaptation,2024.2.4,None,2025-03-05 19h44.23.824331 -0500,
1,180,131,5,9,left,1.3392596250632778,None,9,5,131,7,309.38853083294816,,,,,,,,,,,,,309.38181066699326,309.38853083294816,314.37567804194987,309.38853083294816,314.37567804194987,314.3728105829796,314.3731678329641,314.37567804194987,314.37567804194987,314.4588807920227,314.755527124973,314.96087687497493,314.96087687497493,314.9722097920021,314.9722097920021,316.3105459170183,left,1.3392596250632778,None,demo,001,2025-03-05_19h44.16.495,motion-adaptation,2024.2.4,None,2025-03-05 19h44.23.824331 -0500,
0.5,0,132,6,9,right,0.35161454195622355,None,9,6,132,1,316.32236300001387,,,,,,,,,,,,,316.3110789579805,316.32236300001387,316.32236300001387,316.32236300001387,316.32236300001387,316.3118517919211,316.312250707997,316.32236300001387,316.32236300001387,316.40863395796623,316.70559433300514,316.92314137495123,316.92314137495123,316.92314137495123,316.92314137495123,317.29196533293,right,0.35161454195622355,None,demo,001,2025-03-05_19h44.16.495,motion-adaptation,2024.2.4,None,2025-03-05 19h44.23.824331 -0500,
0.4,180,133,7,9,left,0.09709166700486094,None,9,7,133,9,317.3059216249967,,,,,,,,,,,,,317.2921892919112,317.3059216249967,317.3059216249967,317.3059216249967,317.3059216249967,317.2927741250023,317.29315195791423,317.3059216249967,317.3059216249967,317.38855979195796,317.67452545801643,317.888923667022,317.888923667022,317.89240629191045,317.89240629191045,317.99047804193106,left,0.09709166700486094,None,demo,001,2025-03-05_19h44.16.495,motion-adaptation,2024.2.4,None,2025-03-05 19h44.23.824331 -0500,
0.3,180,134,8,9,left,0.3477142920019105,None,9,8,134,10,317.9972654170124,,,,,,,,,,,,,317.99072466697544,317.9972654170124,317.9972654170124,317.9972654170124,317.9972654170124,317.99157187493984,317.9919563749572,317.9972654170124,317.9972654170124,318.08992804191075,318.38890658295713,318.5889151250012,318.5889151250012,318.5933723329799,318.5933723329799,318.94027454196475,left,0.3477142920019105,None,demo,001,2025-03-05_19h44.16.495,motion-adaptation,2024.2.4,None,2025-03-05 19h44.23.824331 -0500,
0.1,180,135,9,9,left,0.0896457500057295,None,9,9,135,12,318.9458777499385,,,,,,,,,,,,,318.94049270800315,318.9458777499385,323.94313454197254,318.9458777499385,323.94313454197254,323.9394090420101,323.9398072499316,323.94313454197254,323.94313454197254,324.03976883296855,324.3387965830043,324.539284999948,324.539284999948,324.5455237500137,324.5455237500137,324.642396042007,left,0.0896457500057295,None,demo,001,2025-03-05_19h44.16.495,motion-adaptation,2024.2.4,None,2025-03-05 19h44.23.824331 -0500,
0.4,0,136,10,9,right,0.14182516594883054,None,9,10,136,2,324.6557806249475,,,,,,,,,,,,,324.64267374994233,324.6557806249475,324.6557806249475,324.6557806249475,324.6557806249475,324.6434446249623,324.6438004169613,324.6557806249475,324.6557806249475,324.7424339170102,325.0389203749364,325.25648883299436,325.25648883299436,325.25648883299436,325.25648883299436,325.40727187495213,right,0.14182516594883054,None,demo,001,2025-03-05_19h44.16.495,motion-adaptation,2024.2.4,None,2025-03-05 19h44.23.824331 -0500,
0.3,0,137,11,9,right,0.15281879203394055,None,9,11,137,3,325.4138254999416,,,,,,,,,,,,,325.40755704196636,325.4138254999416,325.4138254999416,325.4138254999416,325.4138254999416,325.40822745801415,325.40858774993103,325.4138254999416,325.4138254999416,325.5054750830168,325.79232779191807,326.0055539169116,326.0055539169116,326.0081012919545,326.0081012919545,326.1602387499297,right,0.15281879203394055,None,demo,001,2025-03-05_19h44.16.495,motion-adaptation,2024.2.4,None,2025-03-05 19h44.23.824331 -0500,
0.5,180,138,12,9,left,0.36487387493252754,None,9,12,138,8,326.17200787493493,,,,,,,,,,,,,326.16047608293593,326.17200787493493,326.17200787493493,326.17200787493493,326.17200787493493,326.1610786669189,326.16136387491133,326.17200787493493,326.17200787493493,326.25868279195856,326.5555936669698,326.759171249927,326.759171249927,326.759171249927,326.759171249927,327.1277227079263,left,0.36487387493252754,None,demo,001,2025-03-05_19h44.16.495,motion-adaptation,2024.2.4,None,2025-03-05 19h44.23.824331 -0500,
1,0,139,13,9,right,0.054189042071811855,None,9,13,139,0,327.1391002079472,,,,,,,,,,,,,327.12797354196664,327.1391002079472,332.1259514170233,327.1391002079472,332.1259514170233,332.12270945799537,332.1230906249257,332.1259514170233,332.1259514170233,332.2086397919338,332.5235167919891,332.70866962498985,332.70866962498985,332.72218837495893,332.72218837495893,332.77360212500207,right,0.054189042071811855,None,demo,001,2025-03-05_19h44.16.495,motion-adaptation,2024.2.4,None,2025-03-05 19h44.23.824331 -0500,
