coherence,direction,thisN,thisTrialN,thisRepN,key_resp.keys,key_resp.rt,key_resp.duration,trials.thisRepN,trials.thisTrialN,trials.thisN,trials.thisIndex,thisRow.t,notes,begin_experiment.started,instructions.started,key_resp_2.started,begin_experiment.stopped,key_resp_2.keys,key_resp_2.rt,key_resp_2.duration,trial.started,polygon.started,fixation.started,dots.started,dots.stopped,key_resp.started,fixation_respond.started,polygon.stopped,fixation.stopped,trial.stopped,trials.key_resp.keys,trials.key_resp.rt,trials.key_resp.duration,participant,session,date,expName,psychopyVersion,frameRate,expStart,
,,,,,,,,,,,,,,0.00836320803500712,0.020100667024962604,0.020100667024962604,0.6393947079777718,space,0.602795833023265,None,,,,,,,,,,,,,,215921,001,2025-03-03_22h14.43.732,motion-simple-example,2024.2.4,None,2025-03-03 22h14.48.334762 -0500,
0.5,180,0,0,0,left,0.26818604103755206,None,0,0,0,8,0.7226036669453606,,,,,,,,,0.7093883330235258,0.7226036669453606,0.7226036669453606,0.7362138329772279,1.0230463750194758,1.237004042020999,1.237004042020999,1.3204687499674037,1.3204687499674037,1.5081086669815704,left,0.26818604103755206,None,215921,001,2025-03-03_22h14.43.732,motion-simple-example,2024.2.4,None,2025-03-03 22h14.48.334762 -0500,
0.25,0,1,1,0,right,0.19000037503428757,None,0,1,1,2,1.5345977080287412,,,,,,,,,1.5087185830343515,1.5345977080287412,1.5345977080287412,1.6064486249815673,1.9037304170196876,2.1207973749842495,2.1207973749842495,2.127093750052154,2.127093750052154,2.3240517920348793,right,0.19000037503428757,None,215921,001,2025-03-03_22h14.43.732,motion-simple-example,2024.2.4,None,2025-03-03 22h14.48.334762 -0500,
1,180,2,2,0,left,0.19805954210460186,None,0,2,2,7,2.3372444580309093,,,,,,,,,2.324659000034444,2.3372444580309093,2.3372444580309093,2.423215457936749,2.7204069170402363,2.9245856249472126,2.9245856249472126,2.9245856249472126,2.9245856249472126,3.1379902500193566,left,0.19805954210460186,None,215921,001,2025-03-03_22h14.43.732,motion-simple-example,2024.2.4,None,2025-03-03 22h14.48.334762 -0500,
0,180,3,3,0,right,0.357155125006102,None,0,3,3,13,3.141960958018899,,,,,,,,,3.138509750016965,3.141960958018899,3.141960958018899,3.238214374985546,3.5371040829923004,3.7233493749517947,3.7233493749517947,3.7395207079825923,3.7395207079825923,4.088657832937315,right,0.357155125006102,None,215921,001,2025-03-03_22h14.43.732,motion-simple-example,2024.2.4,None,2025-03-03 22h14.48.334762 -0500,
0.125,180,4,4,0,left,0.21188862493727356,None,0,4,4,10,4.09451025002636,,,,,,,,,4.089458249974996,4.09451025002636,4.09451025002636,4.187050333013758,4.472757291980088,4.687854125048034,4.687854125048034,4.704796417034231,4.704796417034231,4.906214207992889,left,0.21188862493727356,None,215921,001,2025-03-03_22h14.43.732,motion-simple-example,2024.2.4,None,2025-03-03 22h14.48.334762 -0500,
0.03125,180,5,5,0,left,0.18034545797854662,None,0,5,5,12,4.92067008302547,,,,,,,,,4.906929375021718,4.92067008302547,4.92067008302547,5.003684916999191,5.29080683295615,5.522046542027965,5.522046542027965,5.522046542027965,5.522046542027965,5.706579791964032,left,0.18034545797854662,None,215921,001,2025-03-03_22h14.43.732,motion-simple-example,2024.2.4,None,2025-03-03 22h14.48.334762 -0500,
0.0625,180,6,6,0,left,0.1444342090981081,None,0,6,6,11,5.720358042046428,,,,,,,,,5.707161416998133,5.720358042046428,5.720358042046428,5.803733958047815,6.089291917043738,6.30376154195983,6.30376154195983,6.306363416952081,6.306363416952081,6.457795416936278,left,0.1444342090981081,None,215921,001,2025-03-03_22h14.43.732,motion-simple-example,2024.2.4,None,2025-03-03 22h14.48.334762 -0500,
0.5,0,7,7,0,right,0.19666966702789068,None,0,7,7,1,6.470562999951653,,,,,,,,,6.458315833006054,6.470562999951653,6.470562999951653,6.571518791955896,6.871431875042617,7.0715497500495985,7.0715497500495985,7.0715497500495985,7.0715497500495985,7.273567833006382,right,0.19666966702789068,None,215921,001,2025-03-03_22h14.43.732,motion-simple-example,2024.2.4,None,2025-03-03 22h14.48.334762 -0500,
0,0,8,8,0,left,0.33565591601654887,None,0,8,8,6,7.287246166961268,,,,,,,,,7.2740884580416605,7.287246166961268,7.287246166961268,7.373653874965385,7.669760916964151,7.87115412496496,7.87115412496496,7.887546957936138,7.887546957936138,8.223550916998647,left,0.33565591601654887,None,215921,001,2025-03-03_22h14.43.732,motion-simple-example,2024.2.4,None,2025-03-03 22h14.48.334762 -0500,
0.0625,0,9,9,0,left,0.1672810830641538,None,0,9,9,4,8.237294291961007,,,,,,,,,8.224283749936149,8.237294291961007,8.237294291961007,8.320346624939702,8.621593291987665,8.837888999958523,8.837888999958523,8.837888999958523,8.837888999958523,9.007501999964006,left,0.1672810830641538,None,215921,001,2025-03-03_22h14.43.732,motion-simple-example,2024.2.4,None,2025-03-03 22h14.48.334762 -0500,
0.125,0,10,10,0,right,0.3412914590444416,None,0,10,10,3,9.020467499969527,,,,,,,,,9.008017875021324,9.020467499969527,9.020467499969527,9.107684999937192,9.421015625004657,9.605961874942295,9.605961874942295,9.605961874942295,9.605961874942295,9.955105916946195,right,0.3412914590444416,None,215921,001,2025-03-03_22h14.43.732,motion-simple-example,2024.2.4,None,2025-03-03 22h14.48.334762 -0500,
0.25,180,11,11,0,left,0.11899650003761053,None,0,11,11,9,9.960881666978821,,,,,,,,,9.955719375051558,9.960881666978821,9.960881666978821,10.053649042034522,10.355072750011459,10.554433375014924,10.554433375014924,10.571346958051436,10.571346958051436,10.674958957941271,left,0.11899650003761053,None,215921,001,2025-03-03_22h14.43.732,motion-simple-example,2024.2.4,None,2025-03-03 22h14.48.334762 -0500,
1,0,12,12,0,right,0.1346314160618931,None,0,12,12,0,10.687139832996763,,,,,,,,,10.675370792043395,10.687139832996763,10.687139832996763,10.77416108304169,11.071785249980167,11.288095541996881,11.288095541996881,11.288095541996881,11.288095541996881,11.424331499962136,right,0.1346314160618931,None,215921,001,2025-03-03_22h14.43.732,motion-simple-example,2024.2.4,None,2025-03-03 22h14.48.334762 -0500,
0.03125,0,13,13,0,right,0.5758251249790192,None,0,13,13,5,11.437143833027221,,,,,,,,,11.424813832971267,11.437143833027221,11.437143833027221,11.52363658300601,11.820380292017944,12.037644332973287,12.037644332973287,12.037644332973287,12.037644332973287,12.624821583041921,right,0.5758251249790192,None,215921,001,2025-03-03_22h14.43.732,motion-simple-example,2024.2.4,None,2025-03-03 22h14.48.334762 -0500,
0,0,14,0,1,right,0.1892938748933375,None,1,0,14,6,12.637249666964635,,,,,,,,,12.6255061669508,12.637249666964635,12.637249666964635,12.719858707976528,13.021174583001994,13.238293792004697,13.238293792004697,13.238293792004697,13.238293792004697,13.438624999951571,right,0.1892938748933375,None,215921,001,2025-03-03_22h14.43.732,motion-simple-example,2024.2.4,None,2025-03-03 22h14.48.334762 -0500,
1,0,15,1,1,right,0.15184249996673316,None,1,1,15,0,13.443994667031802,,,,,,,,,13.439254791941494,13.443994667031802,13.443994667031802,13.53706462495029,13.8224847499514,14.03763912501745,14.03763912501745,14.04337383294478,14.04337383294478,14.191241499967873,right,0.15184249996673316,None,215921,001,2025-03-03_22h14.43.732,motion-simple-example,2024.2.4,None,2025-03-03 22h14.48.334762 -0500,
0.25,180,16,2,1,left,0.1509265840286389,None,1,2,16,9,14.203754791989923,,,,,,,,,14.191715624998324,14.203754791989923,14.203754791989923,14.290780458017252,14.58920445793774,14.78853679203894,14.78853679203894,14.78853679203894,14.78853679203894,14.944430000032298,left,0.1509265840286389,None,215921,001,2025-03-03_22h14.43.732,motion-simple-example,2024.2.4,None,2025-03-03 22h14.48.334762 -0500,
0.5,0,17,3,1,right,0.1459783329628408,None,1,3,17,1,14.953737666946836,,,,,,,,,14.945241166977212,14.953737666946836,14.953737666946836,15.040859375032596,15.338314124965109,15.554308166960254,15.554308166960254,15.554308166960254,15.554308166960254,15.705672167008743,right,0.1459783329628408,None,215921,001,2025-03-03_22h14.43.732,motion-simple-example,2024.2.4,None,2025-03-03 22h14.48.334762 -0500,
0.03125,0,18,4,1,right,0.28436437505297363,None,1,4,18,5,15.720575332990848,,,,,,,,,15.706176375038922,15.720575332990848,15.720575332990848,15.80369262502063,16.08922441699542,16.321469124988653,16.321469124988653,16.321469124988653,16.321469124988653,16.62277716700919,right,0.28436437505297363,None,215921,001,2025-03-03_22h14.43.732,motion-simple-example,2024.2.4,None,2025-03-03 22h14.48.334762 -0500,
0,180,19,5,1,left,0.297898041899316,None,1,5,19,13,16.628619833034463,,,,,,,,,16.62337112496607,16.628619833034463,16.628619833034463,16.72032387496438,17.00734645803459,17.220434957998805,17.220434957998805,17.223155249957927,17.223155249957927,17.521995792048983,left,0.297898041899316,None,215921,001,2025-03-03_22h14.43.732,motion-simple-example,2024.2.4,None,2025-03-03 22h14.48.334762 -0500,
1,180,20,6,1,left,0.12179045798256993,None,1,6,20,7,17.527569166966714,,,,,,,,,17.522625708021224,17.527569166966714,17.527569166966714,17.62034154194407,17.920910457964055,18.121196042047814,18.121196042047814,18.13752587500494,18.13752587500494,18.256019333028235,left,0.12179045798256993,None,215921,001,2025-03-03_22h14.43.732,motion-simple-example,2024.2.4,None,2025-03-03 22h14.48.334762 -0500,
0.0625,180,21,7,1,left,0.4790087500587106,None,1,7,21,11,18.270617375033908,,,,,,,,,18.256572957965545,18.270617375033908,18.270617375033908,18.355185125023127,18.653659541974775,18.87140454200562,18.87140454200562,18.87140454200562,18.87140454200562,19.35538441699464,left,0.4790087500587106,None,215921,001,2025-03-03_22h14.43.732,motion-simple-example,2024.2.4,None,2025-03-03 22h14.48.334762 -0500,
0.25,0,22,8,1,right,0.1623286249814555,None,1,8,22,2,19.361107041942887,,,,,,,,,19.356012957985513,19.361107041942887,19.361107041942887,19.453902167035267,19.73923654202372,19.954592625028454,19.954592625028454,19.971871832967736,19.971871832967736,20.12212404201273,right,0.1623286249814555,None,215921,001,2025-03-03_22h14.43.732,motion-simple-example,2024.2.4,None,2025-03-03 22h14.48.334762 -0500,
0.5,180,23,9,1,left,0.2112731250235811,None,1,9,23,8,20.128019082942046,,,,,,,,,20.122744582942687,20.128019082942046,20.128019082942046,20.22144879202824,20.521798874950036,20.720321957953274,20.720321957953274,20.723456874955446,20.723456874955446,20.939576582983136,left,0.2112731250235811,None,215921,001,2025-03-03_22h14.43.732,motion-simple-example,2024.2.4,None,2025-03-03 22h14.48.334762 -0500,
0.03125,180,24,10,1,left,0.4202765420777723,None,1,10,24,12,20.953941124957055,,,,,,,,,20.940141125000082,20.953941124957055,20.953941124957055,21.037076166947372,21.338179375045,21.53721450001467,21.53721450001467,21.540960000013,21.540960000013,21.960135458037257,left,0.4202765420777723,None,215921,001,2025-03-03_22h14.43.732,motion-simple-example,2024.2.4,None,2025-03-03 22h14.48.334762 -0500,
0.125,180,25,11,1,left,0.17997562501113862,None,1,11,25,10,21.970255458028987,,,,,,,,,21.96081762504764,21.970255458028987,21.970255458028987,22.057732208049856,22.355867582955398,22.571446332964115,22.571446332964115,22.571446332964115,22.571446332964115,22.756177332950756,left,0.17997562501113862,None,215921,001,2025-03-03_22h14.43.732,motion-simple-example,2024.2.4,None,2025-03-03 22h14.48.334762 -0500,
0.0625,0,26,12,1,left,0.2402816250687465,None,1,12,26,4,22.770549791981466,,,,,,,,,22.75673145800829,22.770549791981466,22.770549791981466,22.870440374943428,23.158567667007446,23.35422495799139,23.35422495799139,23.358367457985878,23.358367457985878,23.605252749985084,left,0.2402816250687465,None,215921,001,2025-03-03_22h14.43.732,motion-simple-example,2024.2.4,None,2025-03-03 22h14.48.334762 -0500,
0.125,0,27,13,1,right,0.5285429999930784,None,1,13,27,3,23.610769958002493,,,,,,,,,23.605891542043537,23.610769958002493,23.610769958002493,23.703747167019174,24.004167624982074,24.22076462500263,24.22076462500263,24.22076462500263,24.22076462500263,24.754988624947146,right,0.5285429999930784,None,215921,001,2025-03-03_22h14.43.732,motion-simple-example,2024.2.4,None,2025-03-03 22h14.48.334762 -0500,
1,180,28,0,2,left,0.14227337494958192,None,2,0,28,7,24.76078808296006,,,,,,,,,24.755652999971062,24.76078808296006,24.76078808296006,24.85361724998802,25.139278042013757,25.34333354199771,25.34333354199771,25.353809457970783,25.353809457970783,25.488230417016894,left,0.14227337494958192,None,215921,001,2025-03-03_22h14.43.732,motion-simple-example,2024.2.4,None,2025-03-03 22h14.48.334762 -0500,
0.0625,180,29,1,2,left,0.28003645804710686,None,2,1,29,11,25.493593749939464,,,,,,,,,25.48870354203973,25.493593749939464,25.493593749939464,25.58705104200635,25.87251599994488,26.08650120801758,26.08650120801758,26.08970487501938,26.08970487501938,26.37490954203531,left,0.28003645804710686,None,215921,001,2025-03-03_22h14.43.732,motion-simple-example,2024.2.4,None,2025-03-03 22h14.48.334762 -0500,
0.125,0,30,2,2,right,0.24401708296500146,None,2,2,30,3,26.387120499974117,,,,,,,,,26.375673749949783,26.387120499974117,26.387120499974117,26.488217917038128,26.787804541992955,26.97075987502467,26.97075987502467,26.98857887496706,26.98857887496706,27.221976625034586,right,0.24401708296500146,None,215921,001,2025-03-03_22h14.43.732,motion-simple-example,2024.2.4,None,2025-03-03 22h14.48.334762 -0500,
0.25,0,31,3,2,right,0.23986054095439613,None,2,3,31,2,27.22757216694299,,,,,,,,,27.222691708011553,27.22757216694299,27.22757216694299,27.32037966698408,27.62157091696281,27.837880125036463,27.837880125036463,27.837880125036463,27.837880125036463,28.08873720804695,right,0.23986054095439613,None,215921,001,2025-03-03_22h14.43.732,motion-simple-example,2024.2.4,None,2025-03-03 22h14.48.334762 -0500,
0.0625,0,32,4,2,right,0.28923462494276464,None,2,4,32,4,28.09434887499083,,,,,,,,,28.089421582990326,28.09434887499083,28.09434887499083,28.18707850005012,28.472595250001177,28.687330499989912,28.687330499989912,28.693499417044222,28.693499417044222,28.988869957975112,right,0.28923462494276464,None,215921,001,2025-03-03_22h14.43.732,motion-simple-example,2024.2.4,None,2025-03-03 22h14.48.334762 -0500,
0.5,180,33,5,2,left,0.2847824579803273,None,2,5,33,8,28.99377633293625,,,,,,,,,28.989349792012945,28.99377633293625,28.99377633293625,29.087075417046435,29.388083374942653,29.588080291985534,29.588080291985534,29.604578000027686,29.604578000027686,29.89100529195275,left,0.2847824579803273,None,215921,001,2025-03-03_22h14.43.732,motion-simple-example,2024.2.4,None,2025-03-03 22h14.48.334762 -0500,
0.25,180,34,6,2,left,0.4562438749708235,None,2,6,34,9,29.903947332990356,,,,,,,,,29.891607124940492,29.903947332990356,29.903947332990356,29.989773208042607,30.286514375009574,30.490604666993022,30.490604666993022,30.490604666993022,30.490604666993022,30.95752687496133,left,0.4562438749708235,None,215921,001,2025-03-03_22h14.43.732,motion-simple-example,2024.2.4,None,2025-03-03 22h14.48.334762 -0500,
0.5,0,35,7,2,right,0.25203799991868436,None,2,7,35,1,30.970517124980688,,,,,,,,,30.9580712079769,30.970517124980688,30.970517124980688,31.071411291952245,31.370780500001274,31.571304916986264,31.571304916986264,31.571304916986264,31.571304916986264,31.838364582974464,right,0.25203799991868436,None,215921,001,2025-03-03_22h14.43.732,motion-simple-example,2024.2.4,None,2025-03-03 22h14.48.334762 -0500,
0.03125,0,36,8,2,left,0.4052143329754472,None,2,8,36,5,31.84367612504866,,,,,,,,,31.83889116696082,31.84367612504866,31.84367612504866,31.937195208040066,32.238195916987024,32.425615667016245,32.425615667016245,32.440539874951355,32.440539874951355,32.83844924997538,left,0.4052143329754472,None,215921,001,2025-03-03_22h14.43.732,motion-simple-example,2024.2.4,None,2025-03-03 22h14.48.334762 -0500,
0.03125,180,37,9,2,left,0.26773016597144306,None,2,9,37,12,32.84345104196109,,,,,,,,,32.83899158297572,32.84345104196109,32.84345104196109,32.93683533300646,33.23767850000877,33.43800495797768,33.43800495797768,33.4550113750156,33.4550113750156,33.72346479201224,left,0.26773016597144306,None,215921,001,2025-03-03_22h14.43.732,motion-simple-example,2024.2.4,None,2025-03-03 22h14.48.334762 -0500,
1,0,38,10,2,right,0.2099108339753002,None,2,10,38,0,33.729421374970116,,,,,,,,,33.72410208301153,33.729421374970116,33.729421374970116,33.820444124983624,34.121931792004034,34.325410041958094,34.325410041958094,34.325410041958094,34.325410041958094,34.539142000023276,right,0.2099108339753002,None,215921,001,2025-03-03_22h14.43.732,motion-simple-example,2024.2.4,None,2025-03-03 22h14.48.334762 -0500,
0.125,180,39,11,2,left,0.26241974998265505,None,2,11,39,10,34.55386316694785,,,,,,,,,34.53965045802761,34.55386316694785,34.55386316694785,34.637132124975324,34.9379118749639,35.138704041950405,35.138704041950405,35.15536145796068,35.15536145796068,35.40848529199138,left,0.26241974998265505,None,215921,001,2025-03-03_22h14.43.732,motion-simple-example,2024.2.4,None,2025-03-03 22h14.48.334762 -0500,
0,180,40,12,2,left,0.6189397079870105,None,2,12,40,13,35.42054408299737,,,,,,,,,35.409005541936494,35.42054408299737,35.42054408299737,35.50776649999898,35.80713462503627,36.00337916694116,36.00337916694116,36.00873629201669,36.00873629201669,36.63783308304846,left,0.6189397079870105,None,215921,001,2025-03-03_22h14.43.732,motion-simple-example,2024.2.4,None,2025-03-03 22h14.48.334762 -0500,
0,0,41,13,2,right,0.2315154590178281,None,2,13,41,6,36.641536916955374,,,,,,,,,36.63839658303186,36.641536916955374,36.641536916955374,36.724350917036645,37.037858583033085,37.23766274994705,37.23766274994705,37.25469679199159,37.25469679199159,37.47535437496845,right,0.2315154590178281,None,215921,001,2025-03-03_22h14.43.732,motion-simple-example,2024.2.4,None,2025-03-03 22h14.48.334762 -0500,
1,180,42,0,3,left,0.25134583399631083,None,3,0,42,7,37.48723529197741,,,,,,,,,37.476064792019315,37.48723529197741,37.48723529197741,37.57313387503382,37.88785125000868,38.087962249992415,38.087962249992415,38.087962249992415,38.087962249992415,38.34637754200958,left,0.25134583399631083,None,215921,001,2025-03-03_22h14.43.732,motion-simple-example,2024.2.4,None,2025-03-03 22h14.48.334762 -0500,
0.0625,180,43,1,3,left,0.2769894580123946,None,3,1,43,11,38.353756458032876,,,,,,,,,38.34693054202944,38.353756458032876,38.353756458032876,38.441021666978486,38.753823291976005,38.939196999999695,38.939196999999695,38.939196999999695,38.939196999999695,39.22161391703412,left,0.2769894580123946,None,215921,001,2025-03-03_22h14.43.732,motion-simple-example,2024.2.4,None,2025-03-03 22h14.48.334762 -0500,
0.125,0,44,2,3,right,0.387043458991684,None,3,2,44,3,39.22726404201239,,,,,,,,,39.2221372500062,39.22726404201239,39.22726404201239,39.32042229198851,39.6210676250048,39.82134379202034,39.82134379202034,39.83727004204411,39.83727004204411,40.22241791698616,right,0.387043458991684,None,215921,001,2025-03-03_22h14.43.732,motion-simple-example,2024.2.4,None,2025-03-03 22h14.48.334762 -0500,
0.0625,0,45,3,3,right,0.24309870798606426,None,3,3,45,4,40.23726004199125,,,,,,,,,40.22294179198798,40.23726004199125,40.23726004199125,40.32049320801161,40.6058172499761,40.837597833015025,40.837597833015025,40.837597833015025,40.837597833015025,41.08916212501936,right,0.24309870798606426,None,215921,001,2025-03-03_22h14.43.732,motion-simple-example,2024.2.4,None,2025-03-03 22h14.48.334762 -0500,
0.5,0,46,4,3,right,0.20092591701541096,None,3,4,46,1,41.103847082937136,,,,,,,,,41.08986649999861,41.103847082937136,41.103847082937136,41.18662916694302,41.47266808303539,41.68749408295844,41.68749408295844,41.70491133304313,41.70491133304313,41.893319249968044,right,0.20092591701541096,None,215921,001,2025-03-03_22h14.43.732,motion-simple-example,2024.2.4,None,2025-03-03 22h14.48.334762 -0500,
0,0,47,5,3,right,0.5276087919482961,None,3,5,47,6,41.90372166701127,,,,,,,,,41.89384000003338,41.90372166701127,41.90372166701127,41.99181875004433,42.305096541997045,42.504375291988254,42.504375291988254,42.504375291988254,42.504375291988254,43.03964208299294,right,0.5276087919482961,None,215921,001,2025-03-03_22h14.43.732,motion-simple-example,2024.2.4,None,2025-03-03 22h14.48.334762 -0500,
0.25,0,48,6,3,right,0.22332520806230605,None,3,6,48,2,43.04404562502168,,,,,,,,,43.04004666698165,43.04404562502168,43.04404562502168,43.137017166940495,43.424203792004846,43.65415650000796,43.65415650000796,43.65415650000796,43.65415650000796,43.888406999991275,right,0.22332520806230605,None,215921,001,2025-03-03_22h14.43.732,motion-simple-example,2024.2.4,None,2025-03-03 22h14.48.334762 -0500,
0.5,180,49,7,3,left,0.24366070807445794,None,3,7,49,8,43.89412158296909,,,,,,,,,43.88896208303049,43.89412158296909,43.89412158296909,43.98712375003379,44.287979332963005,44.4879949579481,44.4879949579481,44.50468029198237,44.50468029198237,44.73839912493713,left,0.24366070807445794,None,215921,001,2025-03-03_22h14.43.732,motion-simple-example,2024.2.4,None,2025-03-03 22h14.48.334762 -0500,
0.25,180,50,8,3,left,0.23490929196123034,None,3,8,50,9,44.74405537499115,,,,,,,,,44.73888562503271,44.74405537499115,44.74405537499115,44.83704887505155,45.13770429196302,45.33706820802763,45.33706820802763,45.34236858296208,45.34236858296208,45.574090917012654,left,0.23490929196123034,None,215921,001,2025-03-03_22h14.43.732,motion-simple-example,2024.2.4,None,2025-03-03 22h14.48.334762 -0500,
0.03125,0,51,9,3,left,0.23062020901124924,None,3,9,51,5,45.58708312502131,,,,,,,,,45.574605542002246,45.58708312502131,45.58708312502131,45.67315212497488,45.970354708028026,46.1717879580101,46.1717879580101,46.1717879580101,46.1717879580101,46.40630620799493,left,0.23062020901124924,None,215921,001,2025-03-03_22h14.43.732,motion-simple-example,2024.2.4,None,2025-03-03 22h14.48.334762 -0500,
0,180,52,10,3,left,0.30243612499907613,None,3,10,52,13,46.42044195800554,,,,,,,,,46.406981082982384,46.42044195800554,46.42044195800554,46.503665833035484,46.7892502079485,47.003805582993664,47.003805582993664,47.00738004199229,47.00738004199229,47.30806979199406,left,0.30243612499907613,None,215921,001,2025-03-03_22h14.43.732,motion-simple-example,2024.2.4,None,2025-03-03 22h14.48.334762 -0500,
0.125,180,53,11,3,left,0.27550824999343604,None,3,11,53,10,47.32037983299233,,,,,,,,,47.30858812504448,47.32037983299233,47.32037983299233,47.407029457972385,47.721731832949445,47.92101712501608,47.92101712501608,47.92101712501608,47.92101712501608,48.20579241705127,left,0.27550824999343604,None,215921,001,2025-03-03_22h14.43.732,motion-simple-example,2024.2.4,None,2025-03-03 22h14.48.334762 -0500,
1,0,54,12,3,right,0.16259891691152006,None,3,12,54,0,48.22058175003622,,,,,,,,,48.20629324996844,48.22058175003622,48.22058175003622,48.30368183297105,48.58923508296721,48.82089795800857,48.82089795800857,48.82089795800857,48.82089795800857,48.99063999997452,right,0.16259891691152006,None,215921,001,2025-03-03_22h14.43.732,motion-simple-example,2024.2.4,None,2025-03-03 22h14.48.334762 -0500,
0.03125,180,55,13,3,left,0.2724129579728469,None,3,13,55,12,48.99637679196894,,,,,,,,,48.99121987493709,48.99637679196894,48.99637679196894,49.09101987502072,49.40464604203589,49.592872499953955,49.592872499953955,49.592872499953955,49.592872499953955,49.87412545795087,left,0.2724129579728469,None,215921,001,2025-03-03_22h14.43.732,motion-simple-example,2024.2.4,None,2025-03-03 22h14.48.334762 -0500,
0.0625,0,56,0,4,left,0.2486347499070689,None,4,0,56,4,49.8871562499553,,,,,,,,,49.87465383298695,49.8871562499553,49.8871562499553,49.96960399998352,50.270492292009294,50.470404666964896,50.470404666964896,50.47416366694961,50.47416366694961,50.721835542004555,left,0.2486347499070689,None,215921,001,2025-03-03_22h14.43.732,motion-simple-example,2024.2.4,None,2025-03-03 22h14.48.334762 -0500,
0.0625,180,57,1,4,right,0.3791920420480892,None,4,1,57,11,50.72783616697416,,,,,,,,,50.72261862503365,50.72783616697416,50.72783616697416,50.82046383304987,51.120806292048655,51.32177454198245,51.32177454198245,51.33789529197384,51.33789529197384,51.70532824995462,right,0.3791920420480892,None,215921,001,2025-03-03_22h14.43.732,motion-simple-example,2024.2.4,None,2025-03-03 22h14.48.334762 -0500,
0.25,0,58,2,4,right,0.28480145800858736,None,4,2,58,2,51.71113991702441,,,,,,,,,51.705843916977756,51.71113991702441,51.71113991702441,51.80370741698425,52.08923258294817,52.303869333001785,52.303869333001785,52.30897074996028,52.30897074996028,52.606079792021774,right,0.28480145800858736,None,215921,001,2025-03-03_22h14.43.732,motion-simple-example,2024.2.4,None,2025-03-03 22h14.48.334762 -0500,
0.03125,180,59,3,4,right,0.2501261670840904,None,4,3,59,12,52.620576999965124,,,,,,,,,52.60664816701319,52.620576999965124,52.620576999965124,52.72126925003249,53.02134845801629,53.22198612499051,53.22198612499051,53.22198612499051,53.22198612499051,53.47920037503354,right,0.2501261670840904,None,215921,001,2025-03-03_22h14.43.732,motion-simple-example,2024.2.4,None,2025-03-03 22h14.48.334762 -0500,
0.03125,0,60,4,4,right,0.3222602920141071,None,4,4,60,5,53.48709804203827,,,,,,,,,53.479748792015016,53.48709804203827,53.48709804203827,53.57463195803575,53.87286745803431,54.08763829199597,54.08763829199597,54.08763829199597,54.08763829199597,54.421772917034104,right,0.3222602920141071,None,215921,001,2025-03-03_22h14.43.732,motion-simple-example,2024.2.4,None,2025-03-03 22h14.48.334762 -0500,
0.25,180,61,5,4,left,0.20397945796139538,None,4,5,61,9,54.42720504198223,,,,,,,,,54.42229266697541,54.42720504198223,54.42720504198223,54.520447749993764,54.82058395794593,55.02100612502545,55.02100612502545,55.037263500038534,55.037263500038534,55.239993750001304,left,0.20397945796139538,None,215921,001,2025-03-03_22h14.43.732,motion-simple-example,2024.2.4,None,2025-03-03 22h14.48.334762 -0500,
0,180,62,6,4,left,0.2884277499979362,None,4,6,62,13,55.24576854205225,,,,,,,,,55.24067216704134,55.24576854205225,55.24576854205225,55.33698449993972,55.626739874947816,55.838259499985725,55.838259499985725,55.85451887501404,55.85451887501404,56.14026883302722,left,0.2884277499979362,None,215921,001,2025-03-03_22h14.43.732,motion-simple-example,2024.2.4,None,2025-03-03 22h14.48.334762 -0500,
1,180,63,7,4,left,0.1774818750564009,None,4,7,63,7,56.153896957985125,,,,,,,,,56.14080295804888,56.153896957985125,56.153896957985125,56.254446457955055,56.55434954201337,56.754181499942206,56.754181499942206,56.754181499942206,56.754181499942206,56.93888087500818,left,0.1774818750564009,None,215921,001,2025-03-03_22h14.43.732,motion-simple-example,2024.2.4,None,2025-03-03 22h14.48.334762 -0500,
0,0,64,8,4,right,0.22453150001820177,None,4,8,64,6,56.942908541997895,,,,,,,,,56.93969304196071,56.942908541997895,56.942908541997895,57.03620612504892,57.32277474994771,57.53655337495729,57.53655337495729,57.53655337495729,57.53655337495729,57.77323599997908,right,0.22453150001820177,None,215921,001,2025-03-03_22h14.43.732,motion-simple-example,2024.2.4,None,2025-03-03 22h14.48.334762 -0500,
0.125,0,65,9,4,right,0.24615658295806497,None,4,9,65,3,57.78724929201417,,,,,,,,,57.7739644999383,57.78724929201417,57.78724929201417,57.8703563750023,58.15587208303623,58.388481791946106,58.388481791946106,58.388481791946106,58.388481791946106,58.63850870798342,right,0.24615658295806497,None,215921,001,2025-03-03_22h14.43.732,motion-simple-example,2024.2.4,None,2025-03-03 22h14.48.334762 -0500,
0.125,180,66,10,4,left,0.440591000020504,None,4,10,66,10,58.64402983302716,,,,,,,,,58.638998250011355,58.64402983302716,58.64402983302716,58.73706524993759,59.02278816699982,59.23702837503515,59.23702837503515,59.23963912494946,59.23963912494946,59.688627457944676,left,0.440591000020504,None,215921,001,2025-03-03_22h14.43.732,motion-simple-example,2024.2.4,None,2025-03-03 22h14.48.334762 -0500,
0.5,180,67,11,4,left,0.15852837497368455,None,4,11,67,8,59.69409804197494,,,,,,,,,59.68920399993658,59.69409804197494,59.69409804197494,59.78829441696871,60.08805287501309,60.28701358300168,60.28701358300168,60.29015737504233,60.29015737504233,60.456592333037406,left,0.15852837497368455,None,215921,001,2025-03-03_22h14.43.732,motion-simple-example,2024.2.4,None,2025-03-03 22h14.48.334762 -0500,
0.5,0,68,12,4,right,0.22351766598876566,None,4,12,68,1,60.462199082947336,,,,,,,,,60.45717645797413,60.462199082947336,60.462199082947336,60.55368400004227,60.85395400004927,61.071456208010204,61.071456208010204,61.071456208010204,61.071456208010204,61.3058757079998,right,0.22351766598876566,None,215921,001,2025-03-03_22h14.43.732,motion-simple-example,2024.2.4,None,2025-03-03 22h14.48.334762 -0500,
1,0,69,13,4,right,0.18457291601225734,None,4,13,69,0,61.32029333303217,,,,,,,,,61.306402583024465,61.32029333303217,61.32029333303217,61.40493779198732,61.70369987504091,61.90466637501959,61.90466637501959,61.92140150000341,61.92140150000341,62.104641292011365,right,0.18457291601225734,None,215921,001,2025-03-03_22h14.43.732,motion-simple-example,2024.2.4,None,2025-03-03 22h14.48.334762 -0500,
1,0,70,0,5,right,0.2112162089906633,None,5,0,70,0,62.107824124977924,,,,,,,,,62.10518199997023,62.107824124977924,62.107824124977924,62.203655041987076,62.49038695800118,62.703654667013325,62.703654667013325,62.70730229199398,62.70730229199398,62.924738792004064,right,0.2112162089906633,None,215921,001,2025-03-03_22h14.43.732,motion-simple-example,2024.2.4,None,2025-03-03 22h14.48.334762 -0500,
0.25,0,71,1,5,right,0.32956204097718,None,5,1,71,2,62.93711370800156,,,,,,,,,62.92529995797668,62.93711370800156,62.93711370800156,63.02423900004942,63.32265424996149,63.53780283301603,63.53780283301603,63.53780283301603,63.53780283301603,63.871710416977294,right,0.32956204097718,None,215921,001,2025-03-03_22h14.43.732,motion-simple-example,2024.2.4,None,2025-03-03 22h14.48.334762 -0500,
0.0625,180,72,2,5,right,0.35195624991320074,None,5,2,72,11,63.87722758296877,,,,,,,,,63.872249291976914,63.87722758296877,63.87722758296877,63.97104562504683,64.27135604200885,64.47130333294626,64.47130333294626,64.4884800419677,64.4884800419677,64.83894695795607,right,0.35195624991320074,None,215921,001,2025-03-03_22h14.43.732,motion-simple-example,2024.2.4,None,2025-03-03 22h14.48.334762 -0500,
0.03125,0,73,3,5,left,0.23553049995098263,None,5,3,73,5,64.84542791696731,,,,,,,,,64.8398275829386,64.84542791696731,64.84542791696731,64.93704679200891,65.23868858302012,65.43795208295342,65.43795208295342,65.45489270798862,65.45489270798862,65.68929708295036,left,0.23553049995098263,None,215921,001,2025-03-03_22h14.43.732,motion-simple-example,2024.2.4,None,2025-03-03 22h14.48.334762 -0500,
0,180,74,4,5,left,0.2131622500019148,None,5,4,74,13,65.70388195803389,,,,,,,,,65.68983620801009,65.70388195803389,65.70388195803389,65.7871589580318,66.0724644169677,66.30460420798045,66.30460420798045,66.30460420798045,66.30460420798045,66.52235883299727,left,0.2131622500019148,None,215921,001,2025-03-03_22h14.43.732,motion-simple-example,2024.2.4,None,2025-03-03 22h14.48.334762 -0500,
1,180,75,5,5,left,0.24168408301193267,None,5,5,75,7,66.53720904199872,,,,,,,,,66.52285850001499,66.53720904199872,66.53720904199872,66.62032170803286,66.92184087494388,67.12094845797401,67.12094845797401,67.125067917048,67.125067917048,67.37599279196002,left,0.24168408301193267,None,215921,001,2025-03-03_22h14.43.732,motion-simple-example,2024.2.4,None,2025-03-03 22h14.48.334762 -0500,
0.5,180,76,6,5,left,0.18683020793832839,None,5,6,76,8,67.38717216695659,,,,,,,,,67.37661341694184,67.38717216695659,67.38717216695659,67.47432287503034,67.77184695797041,67.97061370802112,67.97061370802112,67.97569875000045,67.97569875000045,68.17163887503557,left,0.18683020793832839,None,215921,001,2025-03-03_22h14.43.732,motion-simple-example,2024.2.4,None,2025-03-03 22h14.48.334762 -0500,
0.0625,0,77,7,5,left,0.3018154170131311,None,5,7,77,4,68.17663908295799,,,,,,,,,68.17211683304049,68.17663908295799,68.17663908295799,68.27033637498971,68.55591808294412,68.77138887497131,68.77138887497131,68.78752391703892,68.78752391703892,69.09127604204696,left,0.3018154170131311,None,215921,001,2025-03-03_22h14.43.732,motion-simple-example,2024.2.4,None,2025-03-03 22h14.48.334762 -0500,
0.125,180,78,8,5,left,0.24236529099289328,None,5,8,78,10,69.10381983302068,,,,,,,,,69.09180695796385,69.10381983302068,69.10381983302068,69.19087062496692,69.4870398750063,69.705237749964,69.705237749964,69.705237749964,69.705237749964,69.95556708297227,left,0.24236529099289328,None,215921,001,2025-03-03_22h14.43.732,motion-simple-example,2024.2.4,None,2025-03-03 22h14.48.334762 -0500,
0.5,0,79,9,5,right,0.2298342080321163,None,5,9,79,1,69.96108116698451,,,,,,,,,69.95604895800352,69.96108116698451,69.96108116698451,70.05366379197221,70.35431320802309,70.5550340419868,70.5550340419868,70.57136337494012,70.57136337494012,70.78903195797466,right,0.2298342080321163,None,215921,001,2025-03-03_22h14.43.732,motion-simple-example,2024.2.4,None,2025-03-03 22h14.48.334762 -0500,
0.125,0,80,10,5,right,0.4951078330632299,None,5,10,80,3,70.80389537499286,,,,,,,,,70.78961341700051,70.80389537499286,70.80389537499286,70.88713433302473,71.17336562497076,71.38693100004457,71.38693100004457,71.38983258302324,71.38983258302324,71.88879654195625,right,0.4951078330632299,None,215921,001,2025-03-03_22h14.43.732,motion-simple-example,2024.2.4,None,2025-03-03 22h14.48.334762 -0500,
0.03125,180,81,11,5,right,0.48003350000362843,None,5,11,81,12,71.89491770800669,,,,,,,,,71.88956945796963,71.89491770800669,71.89491770800669,71.98699533299077,72.27273087494541,72.48857175000012,72.48857175000012,72.50477274996229,72.50477274996229,72.97251920797862,right,0.48003350000362843,None,215921,001,2025-03-03_22h14.43.732,motion-simple-example,2024.2.4,None,2025-03-03 22h14.48.334762 -0500,
0.25,180,82,12,5,left,0.21993008395656943,None,5,12,82,9,72.98723679198883,,,,,,,,,72.97324633295648,72.98723679198883,72.98723679198883,73.07029199996032,73.3714072080329,73.57125437504146,73.57125437504146,73.58712191705126,73.58712191705126,73.80503825005144,left,0.21993008395656943,None,215921,001,2025-03-03_22h14.43.732,motion-simple-example,2024.2.4,None,2025-03-03 22h14.48.334762 -0500,
0,0,83,13,5,left,0.2526490830350667,None,5,13,83,6,73.81037479196675,,,,,,,,,73.80549241695553,73.81037479196675,73.81037479196675,73.90479862503707,74.20507975004148,74.40453908301424,74.40453908301424,74.42085633298848,74.42085633298848,74.67452058300842,left,0.2526490830350667,None,215921,001,2025-03-03_22h14.43.732,motion-simple-example,2024.2.4,None,2025-03-03 22h14.48.334762 -0500,
1,0,84,0,6,right,0.1951687498949468,None,6,0,84,0,74.68713220802601,,,,,,,,,74.67509695794433,74.68713220802601,74.68713220802601,74.77316833299119,75.0701587080257,75.28812304197345,75.28812304197345,75.28812304197345,75.28812304197345,75.4908362920396,right,0.1951687498949468,None,215921,001,2025-03-03_22h14.43.732,motion-simple-example,2024.2.4,None,2025-03-03 22h14.48.334762 -0500,
0.0625,0,85,1,6,left,0.6660391250625253,None,6,1,85,4,75.49663195793983,,,,,,,,,75.49188783299178,75.49663195793983,75.49663195793983,75.58708379196469,75.87499504198786,76.08706458297092,76.08706458297092,76.0901109999977,76.0901109999977,76.75707133300602,left,0.6660391250625253,None,215921,001,2025-03-03_22h14.43.732,motion-simple-example,2024.2.4,None,2025-03-03 22h14.48.334762 -0500,
0.125,0,86,2,6,left,0.26183108298573643,None,6,2,86,3,76.76305816695094,,,,,,,,,76.7577629579464,76.76305816695094,76.76305816695094,76.85761637496762,77.15597266703844,77.37126212497242,77.37126212497242,77.37126212497242,77.37126212497242,77.64072058303282,left,0.26183108298573643,None,215921,001,2025-03-03_22h14.43.732,motion-simple-example,2024.2.4,None,2025-03-03 22h14.48.334762 -0500,
0.5,180,87,3,6,left,0.6680275830440223,None,6,3,87,8,77.65387154195923,,,,,,,,,77.64131683297455,77.65387154195923,77.65387154195923,77.73705045797396,78.02397958294023,78.2420215420425,78.2420215420425,78.2420215420425,78.2420215420425,78.92311941704247,left,0.6680275830440223,None,215921,001,2025-03-03_22h14.43.732,motion-simple-example,2024.2.4,None,2025-03-03 22h14.48.334762 -0500,
0.03125,0,88,4,6,left,0.23964299994986504,None,6,4,88,5,78.93722391698975,,,,,,,,,78.92392879200634,78.93722391698975,78.93722391698975,79.0202732499456,79.32106829201803,79.53747433295939,79.53747433295939,79.53747433295939,79.53747433295939,79.78934079199098,left,0.23964299994986504,None,215921,001,2025-03-03_22h14.43.732,motion-simple-example,2024.2.4,None,2025-03-03 22h14.48.334762 -0500,
0,0,89,5,6,left,0.45660366700030863,None,6,5,89,6,79.80389487498906,,,,,,,,,79.78999329195358,79.80389487498906,79.80389487498906,79.88701816694811,80.18825504195411,80.38698112498969,80.38698112498969,80.39014820801094,80.39014820801094,80.85489974997472,left,0.45660366700030863,None,215921,001,2025-03-03_22h14.43.732,motion-simple-example,2024.2.4,None,2025-03-03 22h14.48.334762 -0500,
0,180,90,6,6,right,0.521321167005226,None,6,6,90,13,80.8602777919732,,,,,,,,,80.85538554203231,80.8602777919732,80.8602777919732,80.95376154198311,81.25511333299801,81.44334016693756,81.44334016693756,81.45369666698389,81.45369666698389,81.97186816704925,right,0.521321167005226,None,215921,001,2025-03-03_22h14.43.732,motion-simple-example,2024.2.4,None,2025-03-03 22h14.48.334762 -0500,
0.125,180,91,7,6,left,0.35935891699045897,None,6,7,91,10,81.97758120798972,,,,,,,,,81.97243470803369,81.97758120798972,81.97758120798972,82.07020304200705,82.35942445800174,82.57163833302911,82.57163833302911,82.58760995802004,82.58760995802004,82.9408079580171,left,0.35935891699045897,None,215921,001,2025-03-03_22h14.43.732,motion-simple-example,2024.2.4,None,2025-03-03 22h14.48.334762 -0500,
0.25,0,92,8,6,right,0.4978189170360565,None,6,8,92,2,82.95378883299418,,,,,,,,,82.94139437493868,82.95378883299418,82.95378883299418,83.0370217920281,83.32399695797358,83.53701883298345,83.53701883298345,83.53971870802343,83.53971870802343,84.03816679201555,right,0.4978189170360565,None,215921,001,2025-03-03_22h14.43.732,motion-simple-example,2024.2.4,None,2025-03-03 22h14.48.334762 -0500,
0.03125,180,93,9,6,right,0.31783904205076396,None,6,9,93,12,84.04319516697433,,,,,,,,,84.03859008301515,84.04319516697433,84.04319516697433,84.13704041694291,84.43815312499646,84.63747537496965,84.63747537496965,84.64210045803338,84.64210045803338,84.9728025420336,right,0.31783904205076396,None,215921,001,2025-03-03_22h14.43.732,motion-simple-example,2024.2.4,None,2025-03-03 22h14.48.334762 -0500,
1,180,94,10,6,left,0.14388404099736363,None,6,10,94,7,84.98678604199085,,,,,,,,,84.97336395794991,84.98678604199085,84.98678604199085,85.07069137494545,85.37119212502148,85.57040829199832,85.57040829199832,85.57416633295361,85.57416633295361,85.72305637504905,left,0.14388404099736363,None,215921,001,2025-03-03_22h14.43.732,motion-simple-example,2024.2.4,None,2025-03-03 22h14.48.334762 -0500,
0.0625,180,95,11,6,left,0.5125618750462309,None,6,11,95,11,85.73721950000618,,,,,,,,,85.72368924994953,85.73721950000618,85.73721950000618,85.82154754200019,86.11993212497327,86.32041366701014,86.32041366701014,86.32416904193815,86.32416904193815,86.83852025005035,left,0.5125618750462309,None,215921,001,2025-03-03_22h14.43.732,motion-simple-example,2024.2.4,None,2025-03-03 22h14.48.334762 -0500,
0.25,180,96,12,6,left,0.28404641698580235,None,6,12,96,9,86.84433200000785,,,,,,,,,86.83920074999332,86.84433200000785,86.84433200000785,86.93707041698508,87.23778191697784,87.43838008295279,87.43838008295279,87.4545872079907,87.4545872079907,87.73750483302865,left,0.28404641698580235,None,215921,001,2025-03-03_22h14.43.732,motion-simple-example,2024.2.4,None,2025-03-03 22h14.48.334762 -0500,
0.5,0,97,13,6,right,0.2623609999427572,None,6,13,97,1,87.74064149998594,,,,,,,,,87.73807670804672,87.74064149998594,87.74064149998594,87.82334612496197,88.13781508302782,88.33775970793795,88.33775970793795,88.35513029200956,88.35513029200956,88.60507891699672,right,0.2623609999427572,None,215921,001,2025-03-03_22h14.43.732,motion-simple-example,2024.2.4,None,2025-03-03 22h14.48.334762 -0500,
0.25,180,98,0,7,left,0.38644008291885257,None,7,0,98,9,88.61048408295028,,,,,,,,,88.60569341701921,88.61048408295028,88.61048408295028,88.70495199994184,89.00386087503284,89.20362312498037,89.20362312498037,89.20689612498973,89.20689612498973,89.60496195801534,left,0.38644008291885257,None,215921,001,2025-03-03_22h14.43.732,motion-simple-example,2024.2.4,None,2025-03-03 22h14.48.334762 -0500,
1,0,99,1,7,right,0.18973345798440278,None,7,1,99,0,89.61025183298625,,,,,,,,,89.60545237502083,89.61025183298625,89.61025183298625,89.70370137505233,89.9903697919799,90.20369779202156,90.20369779202156,90.20741229201667,90.20741229201667,90.40494116698392,right,0.18973345798440278,None,215921,001,2025-03-03_22h14.43.732,motion-simple-example,2024.2.4,None,2025-03-03 22h14.48.334762 -0500,
0.0625,180,100,2,7,left,0.46657629194669425,None,7,2,100,11,90.41054375004023,,,,,,,,,90.40548341698013,90.41054375004023,90.41054375004023,90.50367687502876,90.78934183297679,90.99027320800815,90.99027320800815,91.0060830420116,91.0060830420116,91.4741073329933,left,0.46657629194669425,None,215921,001,2025-03-03_22h14.43.732,motion-simple-example,2024.2.4,None,2025-03-03 22h14.48.334762 -0500,
0.5,180,101,3,7,left,0.32403170806355774,None,7,3,101,8,91.48726362502202,,,,,,,,,91.47471287497319,91.48726362502202,91.48726362502202,91.57418166694697,91.8880102080293,92.07537633297034,92.07537633297034,92.07537633297034,92.07537633297034,92.40496850002091,left,0.32403170806355774,None,215921,001,2025-03-03_22h14.43.732,motion-simple-example,2024.2.4,None,2025-03-03 22h14.48.334762 -0500,
0.125,180,102,4,7,left,0.49463633296545595,None,7,4,102,10,92.4097307920456,,,,,,,,,92.40542637498584,92.4097307920456,92.4097307920456,92.50377183302771,92.78836508304812,93.00501479196828,93.00501479196828,93.02165133296512,93.02165133296512,93.50674616696779,left,0.49463633296545595,None,215921,001,2025-03-03_22h14.43.732,motion-simple-example,2024.2.4,None,2025-03-03 22h14.48.334762 -0500,
0.25,0,103,5,7,right,0.2725442920345813,None,7,5,103,2,93.51237191702239,,,,,,,,,93.50740104203578,93.51237191702239,93.51237191702239,93.60362054198049,93.8898007919779,94.12142133293673,94.12142133293673,94.12142133293673,94.12142133293673,94.40705083298963,right,0.2725442920345813,None,215921,001,2025-03-03_22h14.43.732,motion-simple-example,2024.2.4,None,2025-03-03 22h14.48.334762 -0500,
0.03125,0,104,6,7,left,0.43636879208497703,None,7,6,104,5,94.41281649994198,,,,,,,,,94.40762508299667,94.41281649994198,94.41281649994198,94.50375808298122,94.8047835000325,95.02182162494864,95.02182162494864,95.02182162494864,95.02182162494864,95.47333333303686,left,0.43636879208497703,None,215921,001,2025-03-03_22h14.43.732,motion-simple-example,2024.2.4,None,2025-03-03 22h14.48.334762 -0500,
0.125,0,105,7,7,right,0.25045395793858916,None,7,7,105,3,95.47889224998653,,,,,,,,,95.47387862496544,95.47889224998653,95.47889224998653,95.57036308303941,95.85582687496208,96.08851020794827,96.08851020794827,96.08851020794827,96.08851020794827,96.35650495800655,right,0.25045395793858916,None,215921,001,2025-03-03_22h14.43.732,motion-simple-example,2024.2.4,None,2025-03-03 22h14.48.334762 -0500,
0.03125,180,106,8,7,left,0.25352866610046476,None,7,8,106,12,96.37045000004582,,,,,,,,,96.35708604194224,96.37045000004582,96.37045000004582,96.45458487502765,96.75435220799409,96.9536609579809,96.9536609579809,96.95837220794056,96.95837220794056,97.21130945801269,left,0.25352866610046476,None,215921,001,2025-03-03_22h14.43.732,motion-simple-example,2024.2.4,None,2025-03-03 22h14.48.334762 -0500,
0.5,0,107,9,7,right,0.3053844590904191,None,7,9,107,1,97.22034191701096,,,,,,,,,97.211877041962,97.22034191701096,97.22034191701096,97.30673979199491,97.6095179580152,97.80869912495837,97.80869912495837,97.80869912495837,97.80869912495837,98.12485274998471,right,0.3053844590904191,None,215921,001,2025-03-03_22h14.43.732,motion-simple-example,2024.2.4,None,2025-03-03 22h14.48.334762 -0500,
0.0625,0,108,10,7,right,0.31009266700129956,None,7,10,108,4,98.13715879200026,,,,,,,,,98.12539795797784,98.13715879200026,98.13715879200026,98.23805016698316,98.52365433296654,98.73808120796457,98.73808120796457,98.73808120796457,98.73808120796457,99.05619229201693,right,0.31009266700129956,None,215921,001,2025-03-03_22h14.43.732,motion-simple-example,2024.2.4,None,2025-03-03 22h14.48.334762 -0500,
0,0,109,11,7,left,0.6194713329896331,None,7,11,109,6,99.06996083294507,,,,,,,,,99.05672166694421,99.06996083294507,99.06996083294507,99.15392887499183,99.4394773329841,99.65364416700322,99.65364416700322,99.65653449995443,99.65653449995443,100.28702241694555,left,0.6194713329896331,None,215921,001,2025-03-03_22h14.43.732,motion-simple-example,2024.2.4,None,2025-03-03 22h14.48.334762 -0500,
0,180,110,12,7,left,0.3325991249876097,None,7,12,110,13,100.2900451249443,,,,,,,,,100.28750687499996,100.2900451249443,100.2900451249443,100.37391745799687,100.67036312504206,100.87713187502231,100.87713187502231,100.88697416696232,100.88697416696232,101.22299575002398,left,0.3325991249876097,None,215921,001,2025-03-03_22h14.43.732,motion-simple-example,2024.2.4,None,2025-03-03 22h14.48.334762 -0500,
1,180,111,13,7,left,0.13403458299580961,None,7,13,111,7,101.2371750830207,,,,,,,,,101.22352445800789,101.2371750830207,101.2371750830207,101.32025016704574,101.62080408295151,101.83822133298963,101.83822133298963,101.83822133298963,101.83822133298963,101.98782170796767,left,0.13403458299580961,None,215921,001,2025-03-03_22h14.43.732,motion-simple-example,2024.2.4,None,2025-03-03 22h14.48.334762 -0500,
0.03125,0,112,0,8,left,0.33807733294088393,None,8,0,112,5,101.99180104199331,,,,,,,,,101.9883572079707,101.99180104199331,101.99180104199331,102.0740201669978,102.38803279201966,102.58820216695312,102.58820216695312,102.60436050000135,102.60436050000135,102.93986070796382,left,0.33807733294088393,None,215921,001,2025-03-03_22h14.43.732,motion-simple-example,2024.2.4,None,2025-03-03 22h14.48.334762 -0500,
0.25,0,113,1,8,right,0.25346508400980383,None,8,1,113,2,102.94531629199628,,,,,,,,,102.9404372080462,102.94531629199628,102.94531629199628,103.03707008296624,103.32259808294475,103.53708754200488,103.53708754200488,103.53968441695906,103.53968441695906,103.80689200002234,right,0.25346508400980383,None,215921,001,2025-03-03_22h14.43.732,motion-simple-example,2024.2.4,None,2025-03-03 22h14.48.334762 -0500,
0.03125,180,114,2,8,left,0.9873698339797556,None,8,2,114,12,103.8204184169881,,,,,,,,,103.80744683300145,103.8204184169881,103.8204184169881,103.90689637500327,104.2036439999938,104.40426574996673,104.40426574996673,104.41001058300026,104.41001058300026,105.40625587501563,left,0.9873698339797556,None,215921,001,2025-03-03_22h14.43.732,motion-simple-example,2024.2.4,None,2025-03-03 22h14.48.334762 -0500,
0,0,115,3,8,left,0.3621719590155408,None,8,3,115,6,105.42051774996798,,,,,,,,,105.40684162499383,105.42051774996798,105.42051774996798,105.50364516698755,105.7890939579811,106.02106262499001,106.02106262499001,106.02106262499001,106.02106262499001,106.38693150004838,left,0.3621719590155408,None,215921,001,2025-03-03_22h14.43.732,motion-simple-example,2024.2.4,None,2025-03-03 22h14.48.334762 -0500,
0.125,0,116,4,8,left,0.31660200003534555,None,8,4,116,3,106.39002995798364,,,,,,,,,106.38720741705038,106.39002995798364,106.39002995798364,106.48755429196171,106.77358766703401,106.97370629198849,106.97370629198849,106.98705024993978,106.98705024993978,107.29445062496234,left,0.31660200003534555,None,215921,001,2025-03-03_22h14.43.732,motion-simple-example,2024.2.4,None,2025-03-03 22h14.48.334762 -0500,
0,180,117,5,8,right,0.18521487503312528,None,8,5,117,13,107.30380554194562,,,,,,,,,107.29508533293847,107.30380554194562,107.30380554194562,107.39019933296368,107.68699583294801,107.90530454204418,107.90530454204418,107.90530454204418,107.90530454204418,108.10640112496912,right,0.18521487503312528,None,215921,001,2025-03-03_22h14.43.732,motion-simple-example,2024.2.4,None,2025-03-03 22h14.48.334762 -0500,
0.0625,0,118,6,8,right,0.2405546250520274,None,8,6,118,4,108.12008779204916,,,,,,,,,108.10707579203881,108.12008779204916,108.12008779204916,108.20360345800873,108.48907837504521,108.72187458304688,108.72187458304688,108.72187458304688,108.72187458304688,108.97458745795302,right,0.2405546250520274,None,215921,001,2025-03-03_22h14.43.732,motion-simple-example,2024.2.4,None,2025-03-03 22h14.48.334762 -0500,
0.5,0,119,7,8,right,0.11673624999821186,None,8,7,119,1,108.98721737496089,,,,,,,,,108.97603712498676,108.98721737496089,108.98721737496089,109.08793091704138,109.38818087498657,109.58856449997984,109.58856449997984,109.58856449997984,109.58856449997984,109.72144404205028,right,0.11673624999821186,None,215921,001,2025-03-03_22h14.43.732,motion-simple-example,2024.2.4,None,2025-03-03 22h14.48.334762 -0500,
1,180,120,8,8,left,0.2237257920205593,None,8,8,120,7,109.7255610829452,,,,,,,,,109.72195725003257,109.7255610829452,109.7255610829452,109.82034179195762,110.12116870796308,110.32183433300816,110.32183433300816,110.33815833297558,110.33815833297558,110.55509895796422,left,0.2237257920205593,None,215921,001,2025-03-03_22h14.43.732,motion-simple-example,2024.2.4,None,2025-03-03 22h14.48.334762 -0500,
0.125,180,121,9,8,left,0.29537724994588643,None,8,9,121,10,110.560616291943,,,,,,,,,110.55563108297065,110.560616291943,110.560616291943,110.65367425000295,110.93969970801845,111.15529241703916,111.15529241703916,111.17196829197928,111.17196829197928,111.45540958293714,left,0.29537724994588643,None,215921,001,2025-03-03_22h14.43.732,motion-simple-example,2024.2.4,None,2025-03-03 22h14.48.334762 -0500,
0.25,180,122,10,8,left,0.25343179202172905,None,8,10,122,9,111.46045570797287,,,,,,,,,111.45610141695943,111.46045570797287,111.46045570797287,111.55366604204755,111.83907966699917,112.05358558299486,112.05358558299486,112.05651487503201,112.05651487503201,112.30923058302142,left,0.25343179202172905,None,215921,001,2025-03-03_22h14.43.732,motion-simple-example,2024.2.4,None,2025-03-03 22h14.48.334762 -0500,
0.0625,180,123,11,8,left,0.27544450003188103,None,8,11,123,11,112.32028870796785,,,,,,,,,112.30975308304187,112.32028870796785,112.32028870796785,112.40694629203063,112.70328012504615,112.92175358301029,112.92175358301029,112.92175358301029,112.92175358301029,113.20493070804514,left,0.27544450003188103,None,215921,001,2025-03-03_22h14.43.732,motion-simple-example,2024.2.4,None,2025-03-03 22h14.48.334762 -0500,
0.5,180,124,12,8,left,0.2349723749794066,None,8,12,124,8,113.2103336249711,,,,,,,,,113.20536079199519,113.2103336249711,113.2103336249711,113.31982329196762,113.60653837502468,113.80437174998224,113.80437174998224,113.8209630419733,113.8209630419733,114.05466033297125,left,0.2349723749794066,None,215921,001,2025-03-03_22h14.43.732,motion-simple-example,2024.2.4,None,2025-03-03 22h14.48.334762 -0500,
1,0,125,13,8,right,0.21719708305317909,None,8,13,125,0,114.05859475000761,,,,,,,,,114.05519004201051,114.05859475000761,114.05859475000761,114.15364533301909,114.43915212503634,114.64113904198166,114.64113904198166,114.65362708293833,114.65362708293833,114.87169445795007,right,0.21719708305317909,None,215921,001,2025-03-03_22h14.43.732,motion-simple-example,2024.2.4,None,2025-03-03 22h14.48.334762 -0500,
1,0,126,0,9,right,0.2132384160067886,None,9,0,126,0,114.87696529203095,,,,,,,,,114.87216695793904,114.87696529203095,114.87696529203095,114.97080899996217,115.27100129204337,115.45951674995013,115.45951674995013,115.47058337496128,115.47058337496128,115.67461433296558,right,0.2132384160067886,None,215921,001,2025-03-03_22h14.43.732,motion-simple-example,2024.2.4,None,2025-03-03 22h14.48.334762 -0500,
0.25,180,127,1,9,left,0.4909269999479875,None,9,1,127,9,115.68695699993987,,,,,,,,,115.67525845800992,115.68695699993987,115.68695699993987,115.77337579196319,116.07037208299153,116.28779820795171,116.28779820795171,116.28779820795171,116.28779820795171,116.78954966703895,left,0.4909269999479875,None,215921,001,2025-03-03_22h14.43.732,motion-simple-example,2024.2.4,None,2025-03-03 22h14.48.334762 -0500,
0,0,128,2,9,left,0.47310429194476455,None,9,2,128,6,116.80379224999342,,,,,,,,,116.79020295804366,116.80379224999342,116.80379224999342,116.88689137494657,117.18811899994034,117.38702695805114,117.38702695805114,117.38976833294146,117.38976833294146,117.87328199995682,left,0.47310429194476455,None,215921,001,2025-03-03_22h14.43.732,motion-simple-example,2024.2.4,None,2025-03-03 22h14.48.334762 -0500,
0.5,180,129,3,9,left,0.08506650000344962,None,9,3,129,8,117.87969187495764,,,,,,,,,117.8740006670123,117.87969187495764,117.87969187495764,117.97042562498245,118.27110241702758,118.48733633302618,118.48733633302618,118.48733633302618,118.48733633302618,118.57737579196692,left,0.08506650000344962,None,215921,001,2025-03-03_22h14.43.732,motion-simple-example,2024.2.4,None,2025-03-03 22h14.48.334762 -0500,
0.25,0,130,4,9,right,0.21835383400321007,None,9,4,130,2,118.5869682499906,,,,,,,,,118.57809537497815,118.5869682499906,118.5869682499906,118.67340920795687,118.97037358302623,119.1876876669703,119.1876876669703,119.1876876669703,119.1876876669703,119.40916745795403,right,0.21835383400321007,None,215921,001,2025-03-03_22h14.43.732,motion-simple-example,2024.2.4,None,2025-03-03 22h14.48.334762 -0500,
0.0625,0,131,5,9,right,0.25563825003337115,None,9,5,131,4,119.42044104204979,,,,,,,,,119.40965383301955,119.42044104204979,119.42044104204979,119.50792908295989,119.80369550001342,120.0207573750522,120.0207573750522,120.0207573750522,120.0207573750522,120.28713070799131,right,0.25563825003337115,None,215921,001,2025-03-03_22h14.43.732,motion-simple-example,2024.2.4,None,2025-03-03 22h14.48.334762 -0500,
0,180,132,6,9,left,0.29977854201570153,None,9,6,132,13,120.28993187495507,,,,,,,,,120.28748079203069,120.28993187495507,120.28993187495507,120.38638645794708,120.67285262502264,120.88995395798702,120.88995395798702,120.90384549996816,120.90384549996816,121.1938725420041,left,0.29977854201570153,None,215921,001,2025-03-03_22h14.43.732,motion-simple-example,2024.2.4,None,2025-03-03 22h14.48.334762 -0500,
0.03125,180,133,7,9,left,0.2547959169605747,None,9,7,133,12,121.2037852499634,,,,,,,,,121.19447354204021,121.2037852499634,121.2037852499634,121.29086670803372,121.58919966698159,121.80453362502158,121.80453362502158,121.80453362502158,121.80453362502158,122.07168141694274,left,0.2547959169605747,None,215921,001,2025-03-03_22h14.43.732,motion-simple-example,2024.2.4,None,2025-03-03 22h14.48.334762 -0500,
0.125,180,134,8,9,left,0.33502058300655335,None,9,8,134,10,122.07752441696357,,,,,,,,,122.072265625,122.07752441696357,122.07752441696357,122.17024808295537,122.45865462499205,122.67043545795605,122.67043545795605,122.67330270796083,122.67330270796083,123.02414545801003,left,0.33502058300655335,None,215921,001,2025-03-03_22h14.43.732,motion-simple-example,2024.2.4,None,2025-03-03 22h14.48.334762 -0500,
0.5,0,135,9,9,right,0.21953608305193484,None,9,9,135,1,123.03718983300496,,,,,,,,,123.02485579194035,123.03718983300496,123.03718983300496,123.12028758297674,123.40599474997725,123.62028004194144,123.62028004194144,123.62364195799455,123.62364195799455,123.8581834579818,right,0.21953608305193484,None,215921,001,2025-03-03_22h14.43.732,motion-simple-example,2024.2.4,None,2025-03-03 22h14.48.334762 -0500,
0.03125,0,136,10,9,right,0.33093662501778454,None,9,10,136,5,123.87051712500397,,,,,,,,,123.8591082500061,123.87051712500397,123.87051712500397,123.9567180830054,124.25372170796618,124.45372995804064,124.45372995804064,124.45855779200792,124.45855779200792,124.78927800001111,right,0.33093662501778454,None,215921,001,2025-03-03_22h14.43.732,motion-simple-example,2024.2.4,None,2025-03-03 22h14.48.334762 -0500,
0.0625,180,137,11,9,left,0.24552337499335408,None,9,11,137,11,124.80376737494953,,,,,,,,,124.78982533304952,124.80376737494953,124.80376737494953,124.88703383295797,125.18845775001682,125.3881325830007,125.3881325830007,125.40547891694587,125.40547891694587,125.63838333298918,left,0.24552337499335408,None,215921,001,2025-03-03_22h14.43.732,motion-simple-example,2024.2.4,None,2025-03-03 22h14.48.334762 -0500,
1,180,138,12,9,left,0.234591166023165,None,9,12,138,7,125.64369499997701,,,,,,,,,125.63884591695387,125.64369499997701,125.64369499997701,125.73815237497911,126.03835712501314,126.23783329199068,126.23783329199068,126.2545757079497,126.2545757079497,126.48844099999405,left,0.234591166023165,None,215921,001,2025-03-03_22h14.43.732,motion-simple-example,2024.2.4,None,2025-03-03 22h14.48.334762 -0500,
0.125,0,139,13,9,right,0.3830984169617295,None,9,13,139,3,126.49426366703119,,,,,,,,,126.48902133305091,126.49426366703119,126.49426366703119,126.5870514169801,126.87264070799574,127.0880514580058,127.0880514580058,127.10436945804395,127.10436945804395,127.47442674997728,right,0.3830984169617295,None,215921,001,2025-03-03_22h14.43.732,motion-simple-example,2024.2.4,None,2025-03-03 22h14.48.334762 -0500,
