coherence,direction,thisN,thisTrialN,thisRepN,key_resp.keys,key_resp.rt,key_resp.duration,trials.thisRepN,trials.thisTrialN,trials.thisN,trials.thisIndex,thisRow.t,notes,begin_experiment.started,instructions.started,key_resp_2.started,begin_experiment.stopped,key_resp_2.keys,key_resp_2.rt,key_resp_2.duration,trial.started,dots.started,polygon.started,fixation.started,dots.stopped,key_resp.started,fixation_respond.started,polygon.stopped,fixation.stopped,trial.stopped,trials.key_resp.keys,trials.key_resp.rt,trials.key_resp.duration,participant,session,date,expName,psychopyVersion,frameRate,expStart,
,,,,,,,,,,,,,,0.00817549997009337,0.012356124934740365,0.012356124934740365,0.7398483749711886,space,0.6985150839900598,None,,,,,,,,,,,,,,demo,001,2025-03-04_22h13.50.730,motion-simple-example,2024.2.4,None,2025-03-04 22h13.58.555335 -0500,
1,180,0,0,0,left,0.5002434159396216,None,0,0,0,7,0.8589307080255821,,,,,,,,,0.8498728750273585,0.8589307080255821,0.8589307080255821,0.8589307080255821,1.1442967909388244,1.327429790981114,1.327429790981114,1.4575662079732865,1.4575662079732865,1.8302148749353364,left,0.5002434159396216,None,demo,001,2025-03-04_22h13.50.730,motion-simple-example,2024.2.4,None,2025-03-04 22h13.58.555335 -0500,
0,180,1,1,0,right,0.7825659590307623,None,0,1,1,13,1.8418396660126746,,,,,,,,,1.830951749929227,1.929240750032477,1.8418396660126746,1.8418396660126746,2.2250295829726383,2.427202707971446,2.427202707971446,2.427202707971446,2.427202707971446,3.212259165942669,right,0.7825659590307623,None,demo,001,2025-03-04_22h13.50.730,motion-simple-example,2024.2.4,None,2025-03-04 22h13.58.555335 -0500,
0.2,180,2,2,0,left,0.2534794999519363,None,0,2,2,11,3.224898000014946,,,,,,,,,3.21296266594436,3.31204162503127,3.224898000014946,3.224898000014946,3.608388249995187,3.826206999947317,3.826206999947317,3.826206999947317,3.826206999947317,4.095885624992661,left,0.2534794999519363,None,demo,001,2025-03-04_22h13.50.730,motion-simple-example,2024.2.4,None,2025-03-04 22h13.58.555335 -0500,
0.1,180,3,3,0,left,0.2852694160537794,None,0,3,3,12,4.108464707969688,,,,,,,,,4.096469374955632,4.191604707972147,4.108464707969688,4.108464707969688,4.477028999943286,4.70900245802477,4.70900245802477,4.70900245802477,4.70900245802477,5.010081541026011,left,0.2852694160537794,None,demo,001,2025-03-04_22h13.50.730,motion-simple-example,2024.2.4,None,2025-03-04 22h13.58.555335 -0500,
1,0,4,4,0,right,0.27033345797099173,None,0,4,4,0,5.0240372909465805,,,,,,,,,5.010574290994555,5.1083548329770565,5.0240372909465805,5.0240372909465805,5.393831124994904,5.6098028749693185,5.6098028749693185,5.626369207981043,5.626369207981043,5.883322624955326,right,0.27033345797099173,None,demo,001,2025-03-04_22h13.50.730,motion-simple-example,2024.2.4,None,2025-03-04 22h13.58.555335 -0500,
0.5,180,5,5,0,left,0.9801427909405902,None,0,5,5,8,5.891613124986179,,,,,,,,,5.884036874980666,5.978714915923774,5.891613124986179,5.891613124986179,6.292688749963418,6.477120165945962,6.477120165945962,6.477120165945962,6.477120165945962,7.46119166596327,left,0.9801427909405902,None,demo,001,2025-03-04_22h13.50.730,motion-simple-example,2024.2.4,None,2025-03-04 22h13.58.555335 -0500,
0.3,180,6,6,0,left,0.3505646249977872,None,0,6,6,10,7.475201708031818,,,,,,,,,7.461803750018589,7.558251083013602,7.475201708031818,7.475201708031818,7.843704666011035,8.05776870797854,8.05776870797854,8.060350290965289,8.060350290965289,8.410026457975619,left,0.3505646249977872,None,demo,001,2025-03-04_22h13.50.730,motion-simple-example,2024.2.4,None,2025-03-04 22h13.58.555335 -0500,
0.5,0,7,7,0,right,0.3054033749504015,None,0,7,7,1,8.424331165966578,,,,,,,,,8.410320875002071,8.508264707983471,8.424331165966578,8.424331165966578,8.793805541004986,9.00974570796825,9.00974570796825,9.025074457982555,9.025074457982555,9.32654116593767,right,0.3054033749504015,None,demo,001,2025-03-04_22h13.50.730,motion-simple-example,2024.2.4,None,2025-03-04 22h13.58.555335 -0500,
0.1,0,8,8,0,left,0.4399714160244912,None,0,8,8,5,9.33213691599667,,,,,,,,,9.32722408301197,9.424402124946937,9.33213691599667,9.33213691599667,9.710748207988217,9.924397540977225,9.924397540977225,9.92781516595278,9.92781516595278,10.366892291000113,left,0.4399714160244912,None,demo,001,2025-03-04_22h13.50.730,motion-simple-example,2024.2.4,None,2025-03-04 22h13.58.555335 -0500,
0,0,9,9,0,left,0.3032465419964865,None,0,9,9,6,10.374909707927145,,,,,,,,,10.367492125020362,10.462163624935783,10.374909707927145,10.374909707927145,10.758328124997206,10.96044349996373,10.96044349996373,10.96044349996373,10.96044349996373,11.277595708030276,left,0.3032465419964865,None,demo,001,2025-03-04_22h13.50.730,motion-simple-example,2024.2.4,None,2025-03-04 22h13.58.555335 -0500,
0.4,180,10,10,0,left,0.1921977500896901,None,0,10,10,9,11.29191358294338,,,,,,,,,11.27826837496832,11.375023124972358,11.29191358294338,11.29191358294338,11.676032540970482,11.8749410409946,11.8749410409946,11.877616915968247,11.877616915968247,12.076455915928818,left,0.1921977500896901,None,demo,001,2025-03-04_22h13.50.730,motion-simple-example,2024.2.4,None,2025-03-04 22h13.58.555335 -0500,
0.4,0,11,11,0,right,0.27178466599434614,None,0,11,11,2,12.081358499941416,,,,,,,,,12.077040583011694,12.174928082968108,12.081358499941416,12.081358499941416,12.47635041596368,12.67505404097028,12.67505404097028,12.677573499968275,12.677573499968275,12.959675541031174,right,0.27178466599434614,None,demo,001,2025-03-04_22h13.50.730,motion-simple-example,2024.2.4,None,2025-03-04 22h13.58.555335 -0500,
0.2,0,12,12,0,left,0.3199914579745382,None,0,12,12,4,12.965222999919206,,,,,,,,,12.96027066593524,13.058276874944568,12.965222999919206,12.965222999919206,13.359174874960445,13.559670040966012,13.559670040966012,13.574567290954292,13.574567290954292,13.89453574991785,left,0.3199914579745382,None,demo,001,2025-03-04_22h13.50.730,motion-simple-example,2024.2.4,None,2025-03-04 22h13.58.555335 -0500,
0.3,0,13,13,0,right,0.259950166917406,None,0,13,13,3,13.908471290953457,,,,,,,,,13.89513195795007,14.009270165930502,13.908471290953457,13.908471290953457,14.308251249953173,14.509766415925696,14.509766415925696,14.509766415925696,14.509766415925696,14.776583791011944,right,0.259950166917406,None,demo,001,2025-03-04_22h13.50.730,motion-simple-example,2024.2.4,None,2025-03-04 22h13.58.555335 -0500,
0.4,180,14,0,1,left,0.13254241598770022,None,1,0,14,9,14.782457957975566,,,,,,,,,14.77731491602026,14.874998749932274,14.782457957975566,14.782457957975566,15.161007583024912,15.374309208011255,15.374309208011255,15.377511207945645,15.377511207945645,15.510589165962301,left,0.13254241598770022,None,demo,001,2025-03-04_22h13.50.730,motion-simple-example,2024.2.4,None,2025-03-04 22h13.58.555335 -0500,
0.5,180,15,1,1,left,0.1743898750282824,None,1,1,15,8,15.515387875027955,,,,,,,,,15.511022291029803,15.60824012500234,15.515387875027955,15.515387875027955,15.909324583015405,16.108366874977946,16.108366874977946,16.11207299993839,16.11207299993839,16.292854415951297,left,0.1743898750282824,None,demo,001,2025-03-04_22h13.50.730,motion-simple-example,2024.2.4,None,2025-03-04 22h13.58.555335 -0500,
0,180,16,2,1,right,0.2643631249666214,None,1,2,16,13,16.298215582966805,,,,,,,,,16.29341487493366,16.379714332986623,16.298215582966805,16.298215582966805,16.69287849997636,16.892662832979113,16.892662832979113,16.909583500004373,16.909583500004373,17.159520040964708,right,0.2643631249666214,None,demo,001,2025-03-04_22h13.50.730,motion-simple-example,2024.2.4,None,2025-03-04 22h13.58.555335 -0500,
0.3,180,17,3,1,left,0.1066351670306176,None,1,3,17,10,17.16546124999877,,,,,,,,,17.16013616602868,17.25830687501002,17.16546124999877,17.16546124999877,17.54358495795168,17.758243624935858,17.758243624935858,17.761010040994734,17.761010040994734,17.876656249980442,left,0.1066351670306176,None,demo,001,2025-03-04_22h13.50.730,motion-simple-example,2024.2.4,None,2025-03-04 22h13.58.555335 -0500,
0,0,18,4,1,right,0.3501943750306964,None,1,4,18,6,17.882348457933404,,,,,,,,,17.877328790957108,17.975004540989175,17.882348457933404,17.882348457933404,18.260749290930107,18.476010208018124,18.476010208018124,18.492925207945518,18.492925207945518,18.8287023329176,right,0.3501943750306964,None,demo,001,2025-03-04_22h13.50.730,motion-simple-example,2024.2.4,None,2025-03-04 22h13.58.555335 -0500,
1,180,19,5,1,left,0.15079795895144343,None,1,5,19,7,18.84158749994822,,,,,,,,,18.82946154102683,18.928407624945976,18.84158749994822,18.84158749994822,19.242725874995813,19.427209374960512,19.427209374960512,19.427209374960512,19.427209374960512,19.596269582980312,left,0.15079795895144343,None,demo,001,2025-03-04_22h13.50.730,motion-simple-example,2024.2.4,None,2025-03-04 22h13.58.555335 -0500,
0.4,0,20,6,1,right,0.32087629195302725,None,1,6,20,2,19.608524124952964,,,,,,,,,19.59764870791696,19.695643999963067,19.608524124952964,19.608524124952964,19.99116829095874,20.20971883297898,20.20971883297898,20.20971883297898,20.20971883297898,20.54328733298462,right,0.32087629195302725,None,demo,001,2025-03-04_22h13.50.730,motion-simple-example,2024.2.4,None,2025-03-04 22h13.58.555335 -0500,
0.2,180,21,7,1,left,0.31898479210212827,None,1,7,21,11,20.549475666019134,,,,,,,,,20.54416712501552,20.64157937502023,20.549475666019134,20.549475666019134,20.927057583001442,21.141545000020415,21.141545000020415,21.144290124997497,21.144290124997497,21.47636466601398,left,0.31898479210212827,None,demo,001,2025-03-04_22h13.50.730,motion-simple-example,2024.2.4,None,2025-03-04 22h13.58.555335 -0500,
0.3,0,22,8,1,right,0.23404504195787013,None,1,8,22,3,21.4820074159652,,,,,,,,,21.476944457972422,21.57495104102418,21.4820074159652,21.4820074159652,21.875941290985793,22.075562832993455,22.075562832993455,22.080385082983412,22.080385082983412,22.31444437499158,right,0.23404504195787013,None,demo,001,2025-03-04_22h13.50.730,motion-simple-example,2024.2.4,None,2025-03-04 22h13.58.555335 -0500,
1,0,23,9,1,right,0.1990959170507267,None,1,9,23,0,22.324996665935032,,,,,,,,,22.315115666016936,22.410450165974908,22.324996665935032,22.324996665935032,22.708219332969747,22.910391332930885,22.910391332930885,22.910391332930885,22.910391332930885,23.111967833014205,right,0.1990959170507267,None,demo,001,2025-03-04_22h13.50.730,motion-simple-example,2024.2.4,None,2025-03-04 22h13.58.555335 -0500,
0.1,180,24,10,1,left,0.3381433750037104,None,1,10,24,12,23.124875374953263,,,,,,,,,23.112578540924005,23.20943179097958,23.124875374953263,23.124875374953263,23.508320415974595,23.72602091601584,23.72602091601584,23.72602091601584,23.72602091601584,24.076222124975175,left,0.3381433750037104,None,demo,001,2025-03-04_22h13.50.730,motion-simple-example,2024.2.4,None,2025-03-04 22h13.58.555335 -0500,
0.2,0,25,11,1,right,0.20207329094409943,None,1,11,25,4,24.081800290965475,,,,,,,,,24.076725249993615,24.175002707983367,24.081800290965475,24.081800290965475,24.47624883300159,24.67494512500707,24.67494512500707,24.677880915929563,24.677880915929563,24.893982624984346,right,0.20207329094409943,None,demo,001,2025-03-04_22h13.50.730,motion-simple-example,2024.2.4,None,2025-03-04 22h13.58.555335 -0500,
0.1,0,26,12,1,right,0.45166775002144277,None,1,12,26,5,24.89940337499138,,,,,,,,,24.894497041008435,24.991680832928978,24.89940337499138,24.89940337499138,25.276734165963717,25.491614707978442,25.491614707978442,25.49393091595266,25.49393091595266,25.951918457983993,right,0.45166775002144277,None,demo,001,2025-03-04_22h13.50.730,motion-simple-example,2024.2.4,None,2025-03-04 22h13.58.555335 -0500,
0.5,0,27,13,1,right,0.1843068751040846,None,1,13,27,1,25.958176458021626,,,,,,,,,25.952620583004318,26.048493582988158,25.958176458021626,25.958176458021626,26.359333332977258,26.559226249926724,26.559226249926724,26.559226249926724,26.559226249926724,26.7456049999455,right,0.1843068751040846,None,demo,001,2025-03-04_22h13.50.730,motion-simple-example,2024.2.4,None,2025-03-04 22h13.58.555335 -0500,
0.2,0,28,0,2,right,0.2427307500038296,None,2,0,28,4,26.758239791030064,,,,,,,,,26.746145499986596,26.845460291020572,26.758239791030064,26.758239791030064,27.141697374987416,27.35901416593697,27.35901416593697,27.35901416593697,27.35901416593697,27.61059920792468,right,0.2427307500038296,None,demo,001,2025-03-04_22h13.50.730,motion-simple-example,2024.2.4,None,2025-03-04 22h13.58.555335 -0500,
0.4,0,29,1,2,right,0.23515120800584555,None,2,1,29,2,27.62500787503086,,,,,,,,,27.61129070795141,27.70828687492758,27.62500787503086,27.62500787503086,27.994886124972254,28.208280249964446,28.208280249964446,28.21381104097236,28.21381104097236,28.45916445797775,right,0.23515120800584555,None,demo,001,2025-03-04_22h13.50.730,motion-simple-example,2024.2.4,None,2025-03-04 22h13.58.555335 -0500,
0.3,0,30,2,2,right,0.22789354203268886,None,2,2,30,3,28.46292020799592,,,,,,,,,28.45967320795171,28.55949666595552,28.46292020799592,28.46292020799592,28.858329999959096,29.044997332966886,29.044997332966886,29.076130290981382,29.076130290981382,29.277643457986414,right,0.22789354203268886,None,demo,001,2025-03-04_22h13.50.730,motion-simple-example,2024.2.4,None,2025-03-04 22h13.58.555335 -0500,
0,180,31,3,2,right,0.5370494589442387,None,2,3,31,13,29.29119791602716,,,,,,,,,29.27825400000438,29.3784695409704,29.29119791602716,29.29119791602716,29.69246375001967,29.89250233292114,29.89250233292114,29.89250233292114,29.89250233292114,30.44340712495614,right,0.5370494589442387,None,demo,001,2025-03-04_22h13.50.730,motion-simple-example,2024.2.4,None,2025-03-04 22h13.58.555335 -0500,
0,0,32,4,2,left,0.24863045802339911,None,2,4,32,6,30.449286374961957,,,,,,,,,30.444146165973507,30.54107583302539,30.449286374961957,30.449286374961957,30.84273195802234,31.044553790939972,31.044553790939972,31.044553790939972,31.044553790939972,31.312343832920305,left,0.24863045802339911,None,demo,001,2025-03-04_22h13.50.730,motion-simple-example,2024.2.4,None,2025-03-04 22h13.58.555335 -0500,
0.5,180,33,5,2,left,0.24669362499844283,None,2,5,33,8,31.325076333014295,,,,,,,,,31.31290295801591,31.412232790957205,31.325076333014295,31.325076333014295,31.708285874919966,31.910423832945526,31.910423832945526,31.910423832945526,31.910423832945526,32.15925000002608,left,0.24669362499844283,None,demo,001,2025-03-04_22h13.50.730,motion-simple-example,2024.2.4,None,2025-03-04 22h13.58.555335 -0500,
1,0,34,6,2,right,0.16215362504590303,None,2,6,34,0,32.164399125031196,,,,,,,,,32.15973666601349,32.25824095797725,32.164399125031196,32.164399125031196,32.544679582933895,32.74753754097037,32.74753754097037,32.758250499959104,32.758250499959104,32.91236608300824,right,0.16215362504590303,None,demo,001,2025-03-04_22h13.50.730,motion-simple-example,2024.2.4,None,2025-03-04 22h13.58.555335 -0500,
0.5,0,35,7,2,right,0.20734958304092288,None,2,7,35,1,32.92495929100551,,,,,,,,,32.91296645801049,33.01423833298031,32.92495929100551,32.92495929100551,33.30838104092982,33.525776832946576,33.525776832946576,33.525776832946576,33.525776832946576,33.745912582962774,right,0.20734958304092288,None,demo,001,2025-03-04_22h13.50.730,motion-simple-example,2024.2.4,None,2025-03-04 22h13.58.555335 -0500,
0.3,180,36,8,2,left,0.38731795793864876,None,2,8,36,10,33.75831512501463,,,,,,,,,33.74649158294778,33.84529341594316,33.75831512501463,33.75831512501463,34.1598633750109,34.34155491599813,34.34155491599813,34.344220874947496,34.344220874947496,34.74304208299145,left,0.38731795793864876,None,demo,001,2025-03-04_22h13.50.730,motion-simple-example,2024.2.4,None,2025-03-04 22h13.58.555335 -0500,
0.1,0,37,9,2,right,0.5802515000104904,None,2,9,37,5,34.74822950002272,,,,,,,,,34.74353570793755,34.84165487496648,34.74822950002272,34.74822950002272,35.14261354098562,35.3425529160304,35.3425529160304,35.35933345800731,35.35933345800731,35.92736095795408,right,0.5802515000104904,None,demo,001,2025-03-04_22h13.50.730,motion-simple-example,2024.2.4,None,2025-03-04 22h13.58.555335 -0500,
0.4,180,38,10,2,left,0.23992879095021635,None,2,10,38,9,35.94171591592021,,,,,,,,,35.92803245794494,36.025891249999404,35.94171591592021,35.94171591592021,36.32559266593307,36.5241231250111,36.5241231250111,36.526511290925555,36.526511290925555,36.77758966595866,left,0.23992879095021635,None,demo,001,2025-03-04_22h13.50.730,motion-simple-example,2024.2.4,None,2025-03-04 22h13.58.555335 -0500,
0.1,180,39,11,2,left,0.3563221249496564,None,2,11,39,12,36.79178229102399,,,,,,,,,36.778368957922794,36.87496049993206,36.79178229102399,36.79178229102399,37.16064975003246,37.39232424995862,37.39232424995862,37.39232424995862,37.39232424995862,37.76099837501533,left,0.3563221249496564,None,demo,001,2025-03-04_22h13.50.730,motion-simple-example,2024.2.4,None,2025-03-04 22h13.58.555335 -0500,
0.2,180,40,12,2,left,0.2788439999567345,None,2,12,40,11,37.77512604102958,,,,,,,,,37.76185499993153,37.857746207970195,37.77512604102958,37.77512604102958,38.14648529095575,38.35955425002612,38.35955425002612,38.36528795794584,38.36528795794584,38.64391066599637,left,0.2788439999567345,None,demo,001,2025-03-04_22h13.50.730,motion-simple-example,2024.2.4,None,2025-03-04 22h13.58.555335 -0500,
1,180,41,13,2,left,0.19226995797362179,None,2,13,41,7,38.658501707948744,,,,,,,,,38.64465333300177,38.741580832982436,38.658501707948744,38.658501707948744,39.0272334999172,39.24238054093439,39.24238054093439,39.259199833031744,39.259199833031744,39.442867457983084,left,0.19226995797362179,None,demo,001,2025-03-04_22h13.50.730,motion-simple-example,2024.2.4,None,2025-03-04 22h13.58.555335 -0500,
0.3,0,42,0,3,left,0.7042497500078753,None,3,0,42,3,39.44801220798399,,,,,,,,,39.44337224995252,39.541633040993474,39.44801220798399,39.44801220798399,39.831115624983795,40.03092479100451,40.03092479100451,40.0420616249321,40.0420616249321,40.743070082971826,left,0.7042497500078753,None,demo,001,2025-03-04_22h13.50.730,motion-simple-example,2024.2.4,None,2025-03-04 22h13.58.555335 -0500,
0.3,180,43,1,3,left,0.2511218750150874,None,3,1,43,10,40.748590374947526,,,,,,,,,40.74373770796228,40.84163758298382,40.748590374947526,40.748590374947526,41.127562457928434,41.341603916021995,41.341603916021995,41.34426016593352,41.34426016593352,41.59581445797812,left,0.2511218750150874,None,demo,001,2025-03-04_22h13.50.730,motion-simple-example,2024.2.4,None,2025-03-04 22h13.58.555335 -0500,
0.1,0,44,2,3,right,0.32342487503774464,None,3,2,44,5,41.60085354093462,,,,,,,,,41.59638504101895,41.696455333032645,41.60085354093462,41.60085354093462,42.009764582966454,42.20931387494784,42.20931387494784,42.20931387494784,42.20931387494784,42.544785624952056,right,0.32342487503774464,None,demo,001,2025-03-04_22h13.50.730,motion-simple-example,2024.2.4,None,2025-03-04 22h13.58.555335 -0500,
0.1,180,45,3,3,right,0.5884297080338001,None,3,3,45,12,42.550173291005194,,,,,,,,,42.54536091594491,42.64428470795974,42.550173291005194,42.550173291005194,42.941576540935785,43.15979874995537,43.15979874995537,43.15979874995537,43.15979874995537,43.76138516596984,right,0.5884297080338001,None,demo,001,2025-03-04_22h13.50.730,motion-simple-example,2024.2.4,None,2025-03-04 22h13.58.555335 -0500,
0.4,0,46,4,3,right,0.18092762492597103,None,3,4,46,2,43.76778283296153,,,,,,,,,43.762185207917355,43.86227033298928,43.76778283296153,43.76778283296153,44.15823800000362,44.375591707997955,44.375591707997955,44.375591707997955,44.375591707997955,44.559548957971856,right,0.18092762492597103,None,demo,001,2025-03-04_22h13.50.730,motion-simple-example,2024.2.4,None,2025-03-04 22h13.58.555335 -0500,
1,180,47,5,3,left,0.006023208028636873,None,3,5,47,7,44.56526699999813,,,,,,,,,44.56017166597303,44.65823154093232,44.56526699999813,44.56526699999813,44.944579583010636,45.15912404097617,45.15912404097617,45.17640970798675,45.17640970798675,45.17989812500309,left,0.006023208028636873,None,demo,001,2025-03-04_22h13.50.730,motion-simple-example,2024.2.4,None,2025-03-04 22h13.58.555335 -0500,
0.5,0,48,6,3,right,0.2581583340652287,None,3,6,48,1,45.1917956660036,,,,,,,,,45.18047783302609,45.278779582935385,45.1917956660036,45.1917956660036,45.57952254102565,45.777047666022554,45.777047666022554,45.777047666022554,45.777047666022554,46.04399104102049,right,0.2581583340652287,None,demo,001,2025-03-04_22h13.50.730,motion-simple-example,2024.2.4,None,2025-03-04 22h13.58.555335 -0500,
0,0,49,7,3,left,0.3174203330418095,None,3,7,49,6,46.05852341593709,,,,,,,,,46.04457837494556,46.14167229097802,46.05852341593709,46.05852341593709,46.443149582948536,46.659098082920536,46.659098082920536,46.659098082920536,46.659098082920536,46.9782783749979,left,0.3174203330418095,None,demo,001,2025-03-04_22h13.50.730,motion-simple-example,2024.2.4,None,2025-03-04 22h13.58.555335 -0500,
0.4,180,50,8,3,left,0.39355412498116493,None,3,8,50,9,46.991609249962494,,,,,,,,,46.97874137503095,47.07877216592897,46.991609249962494,46.991609249962494,47.37496124999598,47.57501908298582,47.57501908298582,47.578509583021514,47.578509583021514,47.976165832951665,left,0.39355412498116493,None,demo,001,2025-03-04_22h13.50.730,motion-simple-example,2024.2.4,None,2025-03-04 22h13.58.555335 -0500,
0,180,51,9,3,left,0.32199112500529736,None,3,9,51,13,47.98172095802147,,,,,,,,,47.976722790976055,48.074288290925324,47.98172095802147,47.98172095802147,48.37640787498094,48.57598933298141,48.57598933298141,48.59169537492562,48.59169537492562,48.911495749955066,left,0.32199112500529736,None,demo,001,2025-03-04_22h13.50.730,motion-simple-example,2024.2.4,None,2025-03-04 22h13.58.555335 -0500,
1,0,52,10,3,right,0.30105512507725507,None,3,10,52,0,48.925092624966055,,,,,,,,,48.912068165955134,49.00819266599137,48.925092624966055,48.925092624966055,49.297012499999255,49.525434665963985,49.525434665963985,49.525434665963985,49.525434665963985,49.83385879092384,right,0.30105512507725507,None,demo,001,2025-03-04_22h13.50.730,motion-simple-example,2024.2.4,None,2025-03-04 22h13.58.555335 -0500,
0.2,0,53,11,3,right,0.4074736669426784,None,3,11,53,4,49.84167908295058,,,,,,,,,49.83451704098843,49.92821195803117,49.84167908295058,49.84167908295058,50.22491329093464,50.42811170802452,50.42811170802452,50.42811170802452,50.42811170802452,50.845962750026956,right,0.4074736669426784,None,demo,001,2025-03-04_22h13.50.730,motion-simple-example,2024.2.4,None,2025-03-04 22h13.58.555335 -0500,
0.5,180,54,12,3,left,0.3791937920032069,None,3,12,54,8,50.85840454092249,,,,,,,,,50.84668612491805,50.9453770830296,50.85840454092249,50.85840454092249,51.24161908298265,51.458966707927175,51.458966707927175,51.458966707927175,51.458966707927175,51.842825250001624,left,0.3791937920032069,None,demo,001,2025-03-04_22h13.50.730,motion-simple-example,2024.2.4,None,2025-03-04 22h13.58.555335 -0500,
0.2,180,55,13,3,left,0.2850429170066491,None,3,13,55,11,51.84812245797366,,,,,,,,,51.84339058294427,51.942725457949564,51.84812245797366,51.84812245797366,52.24270491593052,52.44152783299796,52.44152783299796,52.44438333297148,52.44438333297148,52.72901979100425,left,0.2850429170066491,None,demo,001,2025-03-04_22h13.50.730,motion-simple-example,2024.2.4,None,2025-03-04 22h13.58.555335 -0500,
0,0,56,0,4,left,0.2793535420205444,None,4,0,56,6,52.741631207987666,,,,,,,,,52.72960862494074,52.843214249936864,52.741631207987666,52.741631207987666,53.14240241597872,53.32687091594562,53.32687091594562,53.32687091594562,53.32687091594562,53.60940045793541,left,0.2793535420205444,None,demo,001,2025-03-04_22h13.50.730,motion-simple-example,2024.2.4,None,2025-03-04 22h13.58.555335 -0500,
0.1,0,57,1,4,right,0.22567545797210187,None,4,1,57,5,53.61476974992547,,,,,,,,,53.60992316599004,53.708110332954675,53.61476974992547,53.61476974992547,53.99399304098915,54.20917629101314,54.20917629101314,54.2255180409411,54.2255180409411,54.44587475003209,right,0.22567545797210187,None,demo,001,2025-03-04_22h13.50.730,motion-simple-example,2024.2.4,None,2025-03-04 22h13.58.555335 -0500,
0.3,0,58,2,4,right,0.26902645896188915,None,4,2,58,3,54.45837608294096,,,,,,,,,54.44639704097062,54.54666791600175,54.45837608294096,54.45837608294096,54.84382987499703,55.04236291593406,55.04236291593406,55.059389833011664,55.059389833011664,55.327829082962126,right,0.26902645896188915,None,demo,001,2025-03-04_22h13.50.730,motion-simple-example,2024.2.4,None,2025-03-04 22h13.58.555335 -0500,
1,180,59,3,4,left,0.15271824994124472,None,4,3,59,7,55.341885207919404,,,,,,,,,55.32839320797939,55.430935250013135,55.341885207919404,55.341885207919404,55.7249300830299,55.92490562493913,55.92490562493913,55.92754854098894,55.92754854098894,56.09440125001129,left,0.15271824994124472,None,demo,001,2025-03-04_22h13.50.730,motion-simple-example,2024.2.4,None,2025-03-04 22h13.58.555335 -0500,
0.4,0,60,4,4,right,0.20481487503275275,None,4,4,60,2,56.10854354093317,,,,,,,,,56.09506529092323,56.19146749994252,56.10854354093317,56.10854354093317,56.4776104579214,56.691093540983275,56.691093540983275,56.694690082920715,56.694690082920715,56.90929079102352,right,0.20481487503275275,None,demo,001,2025-03-04_22h13.50.730,motion-simple-example,2024.2.4,None,2025-03-04 22h13.58.555335 -0500,
0.1,180,61,5,4,left,0.698187957983464,None,4,5,61,12,56.91424274991732,,,,,,,,,56.909837916027755,57.00814737495966,56.91424274991732,56.91424274991732,57.29359904094599,57.50893037498463,57.50893037498463,57.51266975002363,57.51266975002363,58.21218108292669,left,0.698187957983464,None,demo,001,2025-03-04_22h13.50.730,motion-simple-example,2024.2.4,None,2025-03-04 22h13.58.555335 -0500,
0.2,180,62,6,4,left,0.1668883329257369,None,4,6,62,11,58.225096874986775,,,,,,,,,58.21294424997177,58.31229395791888,58.225096874986775,58.225096874986775,58.626195332966745,58.82608016591985,58.82608016591985,58.82608016591985,58.82608016591985,59.00024566601496,left,0.1668883329257369,None,demo,001,2025-03-04_22h13.50.730,motion-simple-example,2024.2.4,None,2025-03-04 22h13.58.555335 -0500,
0.4,180,63,7,4,left,0.2616158750606701,None,4,7,63,9,59.00828566600103,,,,,,,,,59.0008600410074,59.09423470799811,59.00828566600103,59.00828566600103,59.392850040923804,59.6091501659248,59.6091501659248,59.6091501659248,59.6091501659248,59.879311083001085,left,0.2616158750606701,None,demo,001,2025-03-04_22h13.50.730,motion-simple-example,2024.2.4,None,2025-03-04 22h13.58.555335 -0500,
0.5,180,64,8,4,left,0.19690412504132837,None,4,8,64,8,59.89190545794554,,,,,,,,,59.87985204102006,59.978883040952496,59.89190545794554,59.89190545794554,60.27491170796566,60.4749310829211,60.4749310829211,60.479689790983684,60.479689790983684,60.67675337498076,left,0.19690412504132837,None,demo,001,2025-03-04_22h13.50.730,motion-simple-example,2024.2.4,None,2025-03-04 22h13.58.555335 -0500,
0,180,65,9,4,right,0.25033445900771767,None,4,9,65,13,60.68203262495808,,,,,,,,,60.67726412496995,60.774843040970154,60.68203262495808,60.68203262495808,61.07615799992345,61.276141957961954,61.276141957961954,61.292410957976244,61.292410957976244,61.53029845794663,right,0.25033445900771767,None,demo,001,2025-03-04_22h13.50.730,motion-simple-example,2024.2.4,None,2025-03-04 22h13.58.555335 -0500,
0.3,180,66,10,4,left,0.2376159590203315,None,4,10,66,10,61.5417829999933,,,,,,,,,61.531025415984914,61.62478562502656,61.5417829999933,61.5417829999933,61.910234040929936,62.14269487501588,62.14269487501588,62.14269487501588,62.14269487501588,62.392228540964425,left,0.2376159590203315,None,demo,001,2025-03-04_22h13.50.730,motion-simple-example,2024.2.4,None,2025-03-04 22h13.58.555335 -0500,
1,0,67,11,4,right,0.26265041693113744,None,4,11,67,0,62.395817290991545,,,,,,,,,62.39274849998765,62.47709208296146,62.395817290991545,62.395817290991545,62.77505695796572,62.98125312500633,62.98125312500633,62.99163616599981,62.99163616599981,63.245757457916625,right,0.26265041693113744,None,demo,001,2025-03-04_22h13.50.730,motion-simple-example,2024.2.4,None,2025-03-04 22h13.58.555335 -0500,
0.2,0,68,12,4,right,0.4630961249349639,None,4,12,68,4,63.25766520795878,,,,,,,,,63.246318500023335,63.34608908300288,63.25766520795878,63.25766520795878,63.641555540962145,63.859207332949154,63.859207332949154,63.859207332949154,63.859207332949154,64.32781525002792,right,0.4630961249349639,None,demo,001,2025-03-04_22h13.50.730,motion-simple-example,2024.2.4,None,2025-03-04 22h13.58.555335 -0500,
0.5,0,69,13,4,right,0.20294408407062292,None,4,13,69,1,64.34171120799147,,,,,,,,,64.32842133298982,64.42484433297068,64.34171120799147,64.34171120799147,64.70944887492806,64.94265450001694,64.94265450001694,64.94265450001694,64.94265450001694,65.16029704094399,right,0.20294408407062292,None,demo,001,2025-03-04_22h13.50.730,motion-simple-example,2024.2.4,None,2025-03-04 22h13.58.555335 -0500,
0.3,0,70,0,5,right,0.2944800000404939,None,5,0,70,3,65.16644970793277,,,,,,,,,65.16115470801014,65.25816470792051,65.16644970793277,65.16644970793277,65.55932808294892,65.77560024999548,65.77560024999548,65.77560024999548,65.77560024999548,66.0761890829308,right,0.2944800000404939,None,demo,001,2025-03-04_22h13.50.730,motion-simple-example,2024.2.4,None,2025-03-04 22h13.58.555335 -0500,
0.1,0,71,1,5,left,0.19055391708388925,None,5,1,71,5,66.08191595796961,,,,,,,,,66.07684024993796,66.17494912492111,66.08191595796961,66.08191595796961,66.47612200002186,66.67582162492909,66.67582162492909,66.69245208299253,66.69245208299253,66.87619454099331,left,0.19055391708388925,None,demo,001,2025-03-04_22h13.50.730,motion-simple-example,2024.2.4,None,2025-03-04 22h13.58.555335 -0500,
1,0,72,2,5,right,0.21937716694083065,None,5,2,72,0,66.88180804101285,,,,,,,,,66.87673966598231,66.9748696249444,66.88180804101285,66.88180804101285,67.26035712496378,67.47481591592077,67.47481591592077,67.48178458295297,67.48178458295297,67.69594191596843,right,0.21937716694083065,None,demo,001,2025-03-04_22h13.50.730,motion-simple-example,2024.2.4,None,2025-03-04 22h13.58.555335 -0500,
0.4,180,73,3,5,left,0.2644668340217322,None,5,3,73,9,67.70820816594642,,,,,,,,,67.69641012500506,67.794715374941,67.70820816594642,67.70820816594642,68.09145620802883,68.29562562494539,68.29562562494539,68.29562562494539,68.29562562494539,68.56737733294722,left,0.2644668340217322,None,demo,001,2025-03-04_22h13.50.730,motion-simple-example,2024.2.4,None,2025-03-04 22h13.58.555335 -0500,
0.2,0,74,4,5,right,0.18384291604161263,None,5,4,74,4,68.57493120792788,,,,,,,,,68.56797062500846,68.66172708303202,68.57493120792788,68.57493120792788,68.95820766594261,69.16474591603037,69.16474591603037,69.16474591603037,69.16474591603037,69.36092975002248,right,0.18384291604161263,None,demo,001,2025-03-04_22h13.50.730,motion-simple-example,2024.2.4,None,2025-03-04 22h13.58.555335 -0500,
0.5,0,75,5,5,right,0.2121122080134228,None,5,5,75,1,69.37509379093535,,,,,,,,,69.36157008295413,69.4576627080096,69.37509379093535,69.37509379093535,69.74364929099102,69.95826370792929,69.95826370792929,69.96162379102316,69.96162379102316,70.17708974995185,right,0.2121122080134228,None,demo,001,2025-03-04_22h13.50.730,motion-simple-example,2024.2.4,None,2025-03-04 22h13.58.555335 -0500,
0.1,180,76,6,5,left,0.6191819170489907,None,5,6,76,12,70.19172925001476,,,,,,,,,70.17774491594173,70.27484729094431,70.19172925001476,70.19172925001476,70.57595474994741,70.79246716597117,70.79246716597117,70.79246716597117,70.79246716597117,71.42640433297493,left,0.6191819170489907,None,demo,001,2025-03-04_22h13.50.730,motion-simple-example,2024.2.4,None,2025-03-04 22h13.58.555335 -0500,
0.4,0,77,7,5,right,0.19828708306886256,None,5,7,77,2,71.43172524997499,,,,,,,,,71.42695333296433,71.52483187499456,71.43172524997499,71.43172524997499,71.81174124998506,72.02496904099826,72.02496904099826,72.02863833296578,72.02863833296578,72.22765183297452,right,0.19828708306886256,None,demo,001,2025-03-04_22h13.50.730,motion-simple-example,2024.2.4,None,2025-03-04 22h13.58.555335 -0500,
1,180,78,8,5,left,0.5574179580435157,None,5,8,78,7,72.24177141592372,,,,,,,,,72.22838912496809,72.32488062500488,72.24177141592372,72.24177141592372,72.61034266592469,72.82461995794438,72.82461995794438,72.8279431660194,72.8279431660194,73.3929298329167,left,0.5574179580435157,None,demo,001,2025-03-04_22h13.50.730,motion-simple-example,2024.2.4,None,2025-03-04 22h13.58.555335 -0500,
0,0,79,9,5,right,1.1215067920275033,None,5,9,79,6,73.39872666599695,,,,,,,,,73.39346437493805,73.4915579999797,73.39872666599695,73.39872666599695,73.77991504094098,73.99213791592047,73.99213791592047,73.99582620803267,73.99582620803267,75.12617445795331,right,1.1215067920275033,None,demo,001,2025-03-04_22h13.50.730,motion-simple-example,2024.2.4,None,2025-03-04 22h13.58.555335 -0500,
0,180,80,10,5,right,1.0045912500936538,None,5,10,80,13,75.13137299998198,,,,,,,,,75.12667833291925,75.22616729093716,75.13137299998198,75.13137299998198,75.52618170797359,75.72581795800943,75.72581795800943,75.74210087500978,75.74210087500978,76.74286845792085,right,1.0045912500936538,None,demo,001,2025-03-04_22h13.50.730,motion-simple-example,2024.2.4,None,2025-03-04 22h13.58.555335 -0500,
0.5,180,81,11,5,left,0.18600912508554757,None,5,11,81,8,76.7486234579701,,,,,,,,,76.74339437496383,76.84159129101317,76.7486234579701,76.7486234579701,77.1272314999951,77.33141324995086,77.33141324995086,77.34159991599154,77.34159991599154,77.52035004098434,left,0.18600912508554757,None,demo,001,2025-03-04_22h13.50.730,motion-simple-example,2024.2.4,None,2025-03-04 22h13.58.555335 -0500,
0.3,180,82,12,5,left,0.6114013750338927,None,5,12,82,10,77.54161070799455,,,,,,,,,77.5209136659978,77.61069820798002,77.54161070799455,77.54161070799455,77.925982540939,78.11518249998335,78.11518249998335,78.1272095409222,78.1272095409222,78.72825337492395,left,0.6114013750338927,None,demo,001,2025-03-04_22h13.50.730,motion-simple-example,2024.2.4,None,2025-03-04 22h13.58.555335 -0500,
0.2,180,83,13,5,left,0.30698374996427447,None,5,13,83,11,78.74133874999825,,,,,,,,,78.72859149996657,78.82417487492785,78.74133874999825,78.74133874999825,79.11039254092611,79.32885799999349,79.32885799999349,79.32885799999349,79.32885799999349,79.6429494159529,left,0.30698374996427447,None,demo,001,2025-03-04_22h13.50.730,motion-simple-example,2024.2.4,None,2025-03-04 22h13.58.555335 -0500,
0.5,0,84,0,6,right,0.3301097920630127,None,6,0,84,1,79.64875354093965,,,,,,,,,79.64355575002264,79.74253933294676,79.64875354093965,79.64875354093965,80.0427436659811,80.23045179096516,80.23045179096516,80.2590399159817,80.2590399159817,80.57575924997218,right,0.3301097920630127,None,demo,001,2025-03-04_22h13.50.730,motion-simple-example,2024.2.4,None,2025-03-04 22h13.58.555335 -0500,
0.4,180,85,1,6,left,0.2624801660422236,None,6,1,85,9,80.57973795803264,,,,,,,,,80.57629179093055,80.66211508295964,80.57973795803264,80.57973795803264,80.95987124997191,81.16390958300326,81.16390958300326,81.17492074996699,81.17492074996699,81.42847933294252,left,0.2624801660422236,None,demo,001,2025-03-04_22h13.50.730,motion-simple-example,2024.2.4,None,2025-03-04 22h13.58.555335 -0500,
1,180,86,2,6,left,0.24284399999305606,None,6,2,86,7,81.44116154091898,,,,,,,,,81.42900000000373,81.52846599998884,81.44116154091898,81.44116154091898,81.84271983301733,82.02560154092498,82.02560154092498,82.03041466593277,82.03041466593277,82.27757362497505,left,0.24284399999305606,None,demo,001,2025-03-04_22h13.50.730,motion-simple-example,2024.2.4,None,2025-03-04 22h13.58.555335 -0500,
0.3,0,87,3,6,right,0.15064350003376603,None,6,3,87,3,82.29178345797118,,,,,,,,,82.27818070794456,82.37629104102962,82.29178345797118,82.29178345797118,82.67482075002044,82.89304695802275,82.89304695802275,82.89304695802275,82.89304695802275,83.04520216595847,right,0.15064350003376603,None,demo,001,2025-03-04_22h13.50.730,motion-simple-example,2024.2.4,None,2025-03-04 22h13.58.555335 -0500,
0.2,180,88,4,6,left,0.7306709169643,None,6,4,88,11,83.05823162500747,,,,,,,,,83.04575658298563,83.14150433300529,83.05823162500747,83.05823162500747,83.4421095829457,83.64614954101853,83.64614954101853,83.64614954101853,83.64614954101853,84.37836179102305,left,0.7306709169643,None,demo,001,2025-03-04_22h13.50.730,motion-simple-example,2024.2.4,None,2025-03-04 22h13.58.555335 -0500,
0.1,180,89,5,6,left,0.47469741699751467,None,6,5,89,12,84.39127183298115,,,,,,,,,84.37880658300128,84.47756849997677,84.39127183298115,84.39127183298115,84.79260262497701,84.97589804092422,84.97589804092422,84.99266387498938,84.99266387498938,85.46075554098934,left,0.47469741699751467,None,demo,001,2025-03-04_22h13.50.730,motion-simple-example,2024.2.4,None,2025-03-04 22h13.58.555335 -0500,
0.4,0,90,6,6,right,0.1281029999954626,None,6,6,90,2,85.47504991595633,,,,,,,,,85.4614342909772,85.55817545799073,85.47504991595633,85.47504991595633,85.84304958302528,86.05811729095876,86.05811729095876,86.06198454101104,86.06198454101104,86.19587866601069,right,0.1281029999954626,None,demo,001,2025-03-04_22h13.50.730,motion-simple-example,2024.2.4,None,2025-03-04 22h13.58.555335 -0500,
0,0,91,7,6,left,1.1429072499740869,None,6,7,91,6,86.20830670802388,,,,,,,,,86.1965839159675,86.29543395794462,86.20830670802388,86.20830670802388,86.59150695800781,86.80929266603198,86.80929266603198,86.80929266603198,86.80929266603198,87.95956391596701,left,1.1429072499740869,None,demo,001,2025-03-04_22h13.50.730,motion-simple-example,2024.2.4,None,2025-03-04 22h13.58.555335 -0500,
0.3,180,92,8,6,left,0.13449391699396074,None,6,8,92,10,87.96527033299208,,,,,,,,,87.96017270802986,88.05823612492532,87.96527033299208,87.96527033299208,88.34403970802668,88.5594871659996,88.5594871659996,88.57581795798615,88.57581795798615,88.69558499997947,left,0.13449391699396074,None,demo,001,2025-03-04_22h13.50.730,motion-simple-example,2024.2.4,None,2025-03-04 22h13.58.555335 -0500,
0.5,180,93,9,6,left,0.12873554101679474,None,6,9,93,8,88.70821570802946,,,,,,,,,88.696105791023,88.79478345799726,88.70821570802946,88.70821570802946,89.09247491601855,89.30002641596366,89.30002641596366,89.30002641596366,89.30002641596366,89.44476579094771,left,0.12873554101679474,None,demo,001,2025-03-04_22h13.50.730,motion-simple-example,2024.2.4,None,2025-03-04 22h13.58.555335 -0500,
0.2,0,94,10,6,right,0.12925554206594825,None,6,10,94,4,89.44960537494626,,,,,,,,,89.44529358297586,89.54454445792362,89.44960537494626,89.44960537494626,89.85935304092709,90.05917445803061,90.05917445803061,90.05917445803061,90.05917445803061,90.19348195800558,right,0.12925554206594825,None,demo,001,2025-03-04_22h13.50.730,motion-simple-example,2024.2.4,None,2025-03-04 22h13.58.555335 -0500,
0.1,0,95,11,6,right,0.32240275002550334,None,6,11,95,5,90.1993633749662,,,,,,,,,90.19408720801584,90.29154083295725,90.1993633749662,90.1993633749662,90.59265745792072,90.80873929092195,90.80873929092195,90.80873929092195,90.80873929092195,91.14271658298094,right,0.32240275002550334,None,demo,001,2025-03-04_22h13.50.730,motion-simple-example,2024.2.4,None,2025-03-04 22h13.58.555335 -0500,
0,180,96,12,6,right,0.5012530829990283,None,6,12,96,13,91.14817212498747,,,,,,,,,91.1432865409879,91.24159204098396,91.14817212498747,91.14817212498747,91.54285783297382,91.74294783303048,91.74294783303048,91.75949195795693,91.75949195795693,92.26071604096796,right,0.5012530829990283,None,demo,001,2025-03-04_22h13.50.730,motion-simple-example,2024.2.4,None,2025-03-04 22h13.58.555335 -0500,
1,0,97,13,6,right,0.24663983308710158,None,6,13,97,0,92.27507016598247,,,,,,,,,92.26129041600507,92.35821408301126,92.27507016598247,92.27507016598247,92.64413508295547,92.85744870791677,92.85744870791677,92.85993341600988,92.85993341600988,93.11052320792805,right,0.24663983308710158,None,demo,001,2025-03-04_22h13.50.730,motion-simple-example,2024.2.4,None,2025-03-04 22h13.58.555335 -0500,
0.3,0,98,0,7,right,0.26841237500775605,None,7,0,98,3,93.11684462497942,,,,,,,,,93.11135612498038,93.20813762501348,93.11684462497942,93.11684462497942,93.50951854093,93.70898258301895,93.70898258301895,93.72611225000583,93.72611225000583,93.99609737494029,right,0.26841237500775605,None,demo,001,2025-03-04_22h13.50.730,motion-simple-example,2024.2.4,None,2025-03-04 22h13.58.555335 -0500,
1,180,99,1,7,left,0.1302485839696601,None,7,1,99,7,94.0079196250299,,,,,,,,,93.9967029580148,94.09539679100271,94.0079196250299,94.0079196250299,94.39375991595443,94.59734991600271,94.59734991600271,94.59734991600271,94.59734991600271,94.72931554098614,left,0.1302485839696601,None,demo,001,2025-03-04_22h13.50.730,motion-simple-example,2024.2.4,None,2025-03-04 22h13.58.555335 -0500,
1,0,100,2,7,right,0.1690434159245342,None,7,2,100,0,94.74157554097474,,,,,,,,,94.72986283292994,94.8285656250082,94.74157554097474,94.74157554097474,95.12582141591702,95.32944624999072,95.32944624999072,95.32944624999072,95.32944624999072,95.50956295803189,right,0.1690434159245342,None,demo,001,2025-03-04_22h13.50.730,motion-simple-example,2024.2.4,None,2025-03-04 22h13.58.555335 -0500,
0.4,0,101,3,7,right,0.1859842500416562,None,7,3,101,2,95.5149057910312,,,,,,,,,95.51022612501401,95.60813837498426,95.5149057910312,95.5149057910312,95.90914258302655,96.10826816596091,96.10826816596091,96.11194983299356,96.11194983299356,96.30982533295173,right,0.1859842500416562,None,demo,001,2025-03-04_22h13.50.730,motion-simple-example,2024.2.4,None,2025-03-04 22h13.58.555335 -0500,
0.2,180,102,4,7,right,0.5851565829943866,None,7,4,102,11,96.31559274997562,,,,,,,,,96.310443416005,96.40822895802557,96.31559274997562,96.31559274997562,96.7088015829213,96.90840237494558,96.90840237494558,96.91363104095217,96.91363104095217,97.49529524997342,right,0.5851565829943866,None,demo,001,2025-03-04_22h13.50.730,motion-simple-example,2024.2.4,None,2025-03-04 22h13.58.555335 -0500,
0.3,180,103,5,7,left,0.17925137502606958,None,7,5,103,10,97.50822641595732,,,,,,,,,97.49583295802586,97.59453829098493,97.50822641595732,97.50822641595732,97.90849137492478,98.0916719159577,98.0916719159577,98.09674591594376,98.09674591594376,98.27626154094469,left,0.17925137502606958,None,demo,001,2025-03-04_22h13.50.730,motion-simple-example,2024.2.4,None,2025-03-04 22h13.58.555335 -0500,
0,0,104,6,7,left,0.39906329207587987,None,7,6,104,6,98.28217987495009,,,,,,,,,98.27681562502403,98.36339958303142,98.28217987495009,98.28217987495009,98.67619149992242,98.87487829092424,98.87487829092424,98.87768854096066,98.87768854096066,99.2797131659463,left,0.39906329207587987,None,demo,001,2025-03-04_22h13.50.730,motion-simple-example,2024.2.4,None,2025-03-04 22h13.58.555335 -0500,
0,180,105,7,7,left,0.4701220830902457,None,7,7,105,13,99.29175949993078,,,,,,,,,99.2805187079357,99.38032816594932,99.29175949993078,99.29175949993078,99.69210550002754,99.87414299999364,99.87414299999364,99.87658358295448,99.87658358295448,100.34867716592271,left,0.4701220830902457,None,demo,001,2025-03-04_22h13.50.730,motion-simple-example,2024.2.4,None,2025-03-04 22h13.58.555335 -0500,
0.5,180,106,8,7,left,0.2522204170236364,None,7,8,106,8,100.35833249997813,,,,,,,,,100.34952537494246,100.44552041601855,100.35833249997813,100.35833249997813,100.75928004097659,100.95916437497362,100.95916437497362,100.95916437497362,100.95916437497362,101.22637275001034,left,0.2522204170236364,None,demo,001,2025-03-04_22h13.50.730,motion-simple-example,2024.2.4,None,2025-03-04 22h13.58.555335 -0500,
0.1,0,107,9,7,right,0.2006624590139836,None,7,9,107,5,101.23244387493469,,,,,,,,,101.22727195802145,101.3247888329206,101.23244387493469,101.23244387493469,101.62607079092413,101.82617495802697,101.82617495802697,101.84203470801003,101.84203470801003,102.03332249994855,right,0.2006624590139836,None,demo,001,2025-03-04_22h13.50.730,motion-simple-example,2024.2.4,None,2025-03-04 22h13.58.555335 -0500,
0.4,180,108,10,7,left,0.09127874998375773,None,7,10,108,9,102.0415532499319,,,,,,,,,102.03383974998724,102.12806329096202,102.0415532499319,102.0415532499319,102.42573462496512,102.64237570797559,102.64237570797559,102.64237570797559,102.64237570797559,102.74421204102691,left,0.09127874998375773,None,demo,001,2025-03-04_22h13.50.730,motion-simple-example,2024.2.4,None,2025-03-04 22h13.58.555335 -0500,
0.5,0,109,11,7,right,0.09255979105364531,None,7,11,109,1,102.74950537492987,,,,,,,,,102.74471691600047,102.84164024994243,102.74950537492987,102.74950537492987,103.12692041601986,103.3415412500035,103.3415412500035,103.34526308299974,103.34526308299974,103.44286908302456,right,0.09255979105364531,None,demo,001,2025-03-04_22h13.50.730,motion-simple-example,2024.2.4,None,2025-03-04 22h13.58.555335 -0500,
0.1,180,110,12,7,left,0.28336304100230336,None,7,12,110,12,103.44839170796331,,,,,,,,,103.44338012498338,103.54162858298514,103.44839170796331,103.44839170796331,103.8270908750128,104.0290594160324,104.0290594160324,104.04372874996625,104.04372874996625,104.32655866595451,left,0.28336304100230336,None,demo,001,2025-03-04_22h13.50.730,motion-simple-example,2024.2.4,None,2025-03-04 22h13.58.555335 -0500,
0.2,0,111,13,7,right,0.17479362501762807,None,7,13,111,4,104.33239591598976,,,,,,,,,104.3274053329369,104.42429495800752,104.33239591598976,104.33239591598976,104.7130978750065,104.92427091603167,104.92427091603167,104.92691029096022,104.92691029096022,105.1123557499377,right,0.17479362501762807,None,demo,001,2025-03-04_22h13.50.730,motion-simple-example,2024.2.4,None,2025-03-04 22h13.58.555335 -0500,
0.4,180,112,0,8,left,0.11004270892590284,None,8,0,112,9,105.12497004098259,,,,,,,,,105.11290212499443,105.22610383294523,105.12497004098259,105.12497004098259,105.5264286659658,105.71367762493901,105.71367762493901,105.71367762493901,105.71367762493901,105.82885233301204,left,0.11004270892590284,None,demo,001,2025-03-04_22h13.50.730,motion-simple-example,2024.2.4,None,2025-03-04 22h13.58.555335 -0500,
0.3,0,113,1,8,right,0.3545496250735596,None,8,1,113,3,105.84172991593368,,,,,,,,,105.82934325002134,105.92857179092243,105.84172991593368,105.84172991593368,106.22719241597224,106.42490474996157,106.42490474996157,106.42766212497372,106.42766212497372,106.79303091601469,right,0.3545496250735596,None,demo,001,2025-03-04_22h13.50.730,motion-simple-example,2024.2.4,None,2025-03-04 22h13.58.555335 -0500,
0.2,180,114,2,8,left,0.5284253749996424,None,8,2,114,11,106.79840737499762,,,,,,,,,106.79363229102455,106.8922081249766,106.79840737499762,106.79840737499762,107.17699433292728,107.39210108295083,107.39210108295083,107.39779670792632,107.39779670792632,107.92736570793204,left,0.5284253749996424,None,demo,001,2025-03-04_22h13.50.730,motion-simple-example,2024.2.4,None,2025-03-04 22h13.58.555335 -0500,
1,180,115,3,8,left,0.15478912508115172,None,8,3,115,7,107.94185275002383,,,,,,,,,107.92812229099218,108.04256333294325,107.94185275002383,107.94185275002383,108.34151808300521,108.52487283293158,108.52487283293158,108.52856399992015,108.52856399992015,108.6929704999784,left,0.15478912508115172,None,demo,001,2025-03-04_22h13.50.730,motion-simple-example,2024.2.4,None,2025-03-04 22h13.58.555335 -0500,
0.3,180,116,4,8,left,0.21349316707346588,None,8,4,116,10,108.69895954092499,,,,,,,,,108.69353916600812,108.79282045795117,108.69895954092499,108.69895954092499,109.09148454095703,109.29271624993999,109.29271624993999,109.30879020795692,109.30879020795692,109.50938249996398,left,0.21349316707346588,None,demo,001,2025-03-04_22h13.50.730,motion-simple-example,2024.2.4,None,2025-03-04 22h13.58.555335 -0500,
1,0,117,5,8,right,0.19866812496911734,None,8,5,117,0,109.51450616598595,,,,,,,,,109.50982233299874,109.60824441595469,109.51450616598595,109.51450616598595,109.89685112494044,110.10892312496435,110.10892312496435,110.1123804160161,110.1123804160161,110.31031937501393,right,0.19866812496911734,None,demo,001,2025-03-04_22h13.50.730,motion-simple-example,2024.2.4,None,2025-03-04 22h13.58.555335 -0500,
0.1,0,118,6,8,left,0.3082417920231819,None,8,6,118,5,110.31618308299221,,,,,,,,,110.31099170795642,110.40814724995289,110.31618308299221,110.31618308299221,110.69649908295833,110.90921533294022,110.90921533294022,110.92620437499136,110.92620437499136,111.2299374579452,left,0.3082417920231819,None,demo,001,2025-03-04_22h13.50.730,motion-simple-example,2024.2.4,None,2025-03-04 22h13.58.555335 -0500,
0.5,180,119,7,8,left,0.1738482500659302,None,8,7,119,8,111.24167887493968,,,,,,,,,111.23046329093631,111.32882024999708,111.24167887493968,111.24167887493968,111.62485024996568,111.82696741598193,111.82696741598193,111.82696741598193,111.82696741598193,112.01296291593462,left,0.1738482500659302,None,demo,001,2025-03-04_22h13.50.730,motion-simple-example,2024.2.4,None,2025-03-04 22h13.58.555335 -0500,
0.4,0,120,8,8,right,0.17867175000719726,None,8,8,120,2,112.02443762496114,,,,,,,,,112.01373429095838,112.11438249994535,112.02443762496114,112.02443762496114,112.42619983293116,112.6081566659268,112.6081566659268,112.61070916592143,112.61070916592143,112.7958805829985,right,0.17867175000719726,None,demo,001,2025-03-04_22h13.50.730,motion-simple-example,2024.2.4,None,2025-03-04 22h13.58.555335 -0500,
0,180,121,9,8,left,0.25534512498416007,None,8,9,121,13,112.80838754097931,,,,,,,,,112.79660300002433,112.89531733293552,112.80838754097931,112.80838754097931,113.19155516591854,113.39154849993065,113.39154849993065,113.39868016599212,113.39868016599212,113.66107437491883,left,0.25534512498416007,None,demo,001,2025-03-04_22h13.50.730,motion-simple-example,2024.2.4,None,2025-03-04 22h13.58.555335 -0500,
0.2,0,122,10,8,right,0.1971201669657603,None,8,10,122,4,113.67494333302602,,,,,,,,,113.6616387909744,113.77626141603105,113.67494333302602,113.67494333302602,114.07420462497976,114.26395404094364,114.26395404094364,114.26395404094364,114.26395404094364,114.47914720792323,right,0.1971201669657603,None,demo,001,2025-03-04_22h13.50.730,motion-simple-example,2024.2.4,None,2025-03-04 22h13.58.555335 -0500,
0.1,180,123,11,8,left,0.25719454197678715,None,8,11,123,12,114.49178854096681,,,,,,,,,114.48054720798973,114.57881424995139,114.49178854096681,114.49178854096681,114.89279554097448,115.08142245793715,115.08142245793715,115.08142245793715,115.08142245793715,115.34406937495805,left,0.25719454197678715,None,demo,001,2025-03-04_22h13.50.730,motion-simple-example,2024.2.4,None,2025-03-04 22h13.58.555335 -0500,
0.5,0,124,12,8,right,0.15094204200431705,None,8,12,124,1,115.35830587497912,,,,,,,,,115.34462599991821,115.44162183301523,115.35830587497912,115.35830587497912,115.72710158291738,115.95951979095116,115.95951979095116,115.95951979095116,115.95951979095116,116.11230658297427,right,0.15094204200431705,None,demo,001,2025-03-04_22h13.50.730,motion-simple-example,2024.2.4,None,2025-03-04 22h13.58.555335 -0500,
0,0,125,13,8,left,0.27404662501066923,None,8,13,125,6,116.12481083301827,,,,,,,,,116.11283737502526,116.20804204093292,116.12481083301827,116.12481083301827,116.49526287498884,116.7142972080037,116.7142972080037,116.7142972080037,116.7142972080037,116.9943489159923,left,0.27404662501066923,None,demo,001,2025-03-04_22h13.50.730,motion-simple-example,2024.2.4,None,2025-03-04 22h13.58.555335 -0500,
0,180,126,0,9,right,0.6849708340596408,None,9,0,126,13,117.0083837499842,,,,,,,,,116.99490774993319,117.09166375000495,117.0083837499842,117.0083837499842,117.37703829095699,117.59157816600055,117.59157816600055,117.59411870792974,117.59411870792974,118.28085079102311,right,0.6849708340596408,None,demo,001,2025-03-04_22h13.50.730,motion-simple-example,2024.2.4,None,2025-03-04 22h13.58.555335 -0500,
0.2,180,127,1,9,left,0.16694458306301385,None,9,1,127,11,118.2915900410153,,,,,,,,,118.28137737500947,118.37870729097631,118.2915900410153,118.2915900410153,118.67699804098811,118.88049729098566,118.88049729098566,118.88049729098566,118.88049729098566,119.05955883301795,left,0.16694458306301385,None,demo,001,2025-03-04_22h13.50.730,motion-simple-example,2024.2.4,None,2025-03-04 22h13.58.555335 -0500,
0.4,180,128,2,9,left,0.262268332997337,None,9,2,128,9,119.06483099993784,,,,,,,,,119.06011291593313,119.15826158295386,119.06483099993784,119.06483099993784,119.45894708298147,119.65759116597474,119.65759116597474,119.6603534159949,119.6603534159949,119.92765487497672,left,0.262268332997337,None,demo,001,2025-03-04_22h13.50.730,motion-simple-example,2024.2.4,None,2025-03-04 22h13.58.555335 -0500,
0.1,0,129,3,9,right,0.4835852920077741,None,9,3,129,5,119.93282012501732,,,,,,,,,119.92816912499256,120.02485120797064,119.93282012501732,119.93282012501732,120.32596641592681,120.54231099993922,120.54231099993922,120.54231099993922,120.54231099993922,121.04444887500722,right,0.4835852920077741,None,demo,001,2025-03-04_22h13.50.730,motion-simple-example,2024.2.4,None,2025-03-04 22h13.58.555335 -0500,
0.5,180,130,4,9,left,0.10279383300803602,None,9,4,130,8,121.05033649993129,,,,,,,,,121.04538445791695,121.14426220802125,121.05033649993129,121.05033649993129,121.44155395799316,121.64158033300191,121.64158033300191,121.64531408296898,121.64531408296898,121.74667212495115,left,0.10279383300803602,None,demo,001,2025-03-04_22h13.50.730,motion-simple-example,2024.2.4,None,2025-03-04 22h13.58.555335 -0500,
0.3,0,131,5,9,right,0.7208300409838557,None,9,5,131,3,121.75812591600697,,,,,,,,,121.74732874997426,121.84544004092459,121.75812591600697,121.75812591600697,122.158653707942,122.34823899995536,122.34823899995536,122.34823899995536,122.34823899995536,123.07631516596302,right,0.7208300409838557,None,demo,001,2025-03-04_22h13.50.730,motion-simple-example,2024.2.4,None,2025-03-04 22h13.58.555335 -0500,
1,0,132,6,9,right,0.11910829111002386,None,9,6,132,0,123.08247666596435,,,,,,,,,123.07706770801451,123.17489933292381,123.08247666596435,123.08247666596435,123.46372662496287,123.67438400001265,123.67438400001265,123.67725104093552,123.67725104093552,123.79624666599557,right,0.11910829111002386,None,demo,001,2025-03-04_22h13.50.730,motion-simple-example,2024.2.4,None,2025-03-04 22h13.58.555335 -0500,
0.3,180,133,7,9,left,0.19582825002726167,None,9,7,133,10,123.80839845794253,,,,,,,,,123.79686704091728,123.90940137498546,123.80839845794253,123.80839845794253,124.20827499998268,124.41062699991744,124.41062699991744,124.41062699991744,124.41062699991744,124.60947245801799,left,0.19582825002726167,None,demo,001,2025-03-04_22h13.50.730,motion-simple-example,2024.2.4,None,2025-03-04 22h13.58.555335 -0500,
0.1,180,134,8,9,right,0.8237987500615418,None,9,8,134,12,124.61469512502663,,,,,,,,,124.6100947499508,124.70815020799637,124.61469512502663,124.61469512502663,124.99368362501264,125.20815462502651,125.20815462502651,125.21163845795672,125.21163845795672,126.04319574998226,right,0.8237987500615418,None,demo,001,2025-03-04_22h13.50.730,motion-simple-example,2024.2.4,None,2025-03-04 22h13.58.555335 -0500,
0.5,0,135,9,9,right,0.22908204107079655,None,9,9,135,1,126.04937124997377,,,,,,,,,126.0439809160307,126.14152920793276,126.04937124997377,126.04937124997377,126.42741637502331,126.64216762501746,126.64216762501746,126.64582083292771,126.64582083292771,126.87597295793239,right,0.22908204107079655,None,demo,001,2025-03-04_22h13.50.730,motion-simple-example,2024.2.4,None,2025-03-04 22h13.58.555335 -0500,
0.4,0,136,10,9,right,0.40658475004602224,None,9,10,136,2,126.88111737498548,,,,,,,,,126.87640654097777,126.9748725410318,126.88111737498548,126.88111737498548,127.27557895798236,127.47483687498607,127.47483687498607,127.47759587492328,127.47759587492328,127.89298145798966,right,0.40658475004602224,None,demo,001,2025-03-04_22h13.50.730,motion-simple-example,2024.2.4,None,2025-03-04 22h13.58.555335 -0500,
0,0,137,11,9,left,0.4442455000244081,None,9,11,137,6,127.89854766603094,,,,,,,,,127.89350379095413,127.98001712502446,127.89854766603094,127.89854766603094,128.27426187496167,128.49253499996848,128.49253499996848,128.4974524580175,128.4974524580175,128.94587049994152,left,0.4442455000244081,None,demo,001,2025-03-04_22h13.50.730,motion-simple-example,2024.2.4,None,2025-03-04 22h13.58.555335 -0500,
0.2,0,138,12,9,right,0.6251821669284254,None,9,12,138,4,128.9583974579582,,,,,,,,,128.94659637496807,129.0588005000027,128.9583974579582,128.9583974579582,129.343586999923,129.5592985409312,129.5592985409312,129.5592985409312,129.5592985409312,130.19291483296547,right,0.6251821669284254,None,demo,001,2025-03-04_22h13.50.730,motion-simple-example,2024.2.4,None,2025-03-04 22h13.58.555335 -0500,
1,180,139,13,9,left,0.11171274993102998,None,9,13,139,7,130.19924470793922,,,,,,,,,130.1935403329553,130.29150133300573,130.19924470793922,130.19924470793922,130.57727524999063,130.79141695797443,130.79141695797443,130.7939444159856,130.7939444159856,130.91227404098026,left,0.11171274993102998,None,demo,001,2025-03-04_22h13.50.730,motion-simple-example,2024.2.4,None,2025-03-04 22h13.58.555335 -0500,
