thisRow.t,notes,begin_experiment.started,text.started,begin_experiment.stopped,staircase.label,staircase.nReps,staircase.startVal,staircase.maxVal,staircase.minVal,staircase.stepSizes,staircase.stepType,staircase.nUp,staircase.nDown,staircase.nReversals,staircase.base_direction,staircase.thisIndex,staircase.thisRepN,staircase.thisN,staircase.direction,staircase.stepSize,staircase.intensity,trial.started,dots.started,dots.stopped,dots_test.started,dots_test.stopped,key_resp.started,text_2.started,trial.stopped,staircase.response,response,participant,session,date,expName,psychopyVersion,frameRate,expStart,
,,0.008210333005990833,0.016946625022683293,7.0159487500204705,,,,,,,,,,,,,,,,,,,,,,,,,,,,demo,001,2025-02-28_07h12.54.786,2d-motion-direction-discrimination,2024.2.4,None,2025-02-28 07h13.08.126198 -0500,
7.154208166000899,,,,,lo,6,-14,-20,-20,1,lin,2,1,0,135,7,1,0,start,1,-14,7.148175165988505,7.154208166000899,7.647600041003898,7.814187458017841,8.311917875020299,8.311917875020299,8.311917875020299,8.879762166005094,0,cw,demo,001,2025-02-28_07h12.54.786,2d-motion-direction-discrimination,2024.2.4,None,2025-02-28 07h13.08.126198 -0500,
8.885272375016939,,,,,ccw,40,-14,0,-20,2,lin,2,1,None,135,5,1,1,start,2,-14,8.880467790993862,8.885272375016939,9.396938999998383,9.68013350002002,10.179443250002805,10.179443250002805,10.179443250002805,10.463561583019327,0,cw,demo,001,2025-02-28_07h12.54.786,2d-motion-direction-discrimination,2024.2.4,None,2025-02-28 07h13.08.126198 -0500,
10.477904375002254,,,,,cw,40,14,20,0,2,lin,1,2,None,135,4,1,2,start,2,14,10.464025583001785,10.477904375002254,10.97887658298714,11.263263291039038,11.76214779104339,11.76214779104339,11.76214779104339,12.196300250012428,1,ccw,demo,001,2025-02-28_07h12.54.786,2d-motion-direction-discrimination,2024.2.4,None,2025-02-28 07h13.08.126198 -0500,
12.201816625020001,,,,,lo,6,-14,-20,-20,1,lin,2,1,0,45,3,1,3,start,1,-14,12.196742916014045,12.201816625020001,12.712729583028704,12.996431875042617,13.495208625041414,13.495208625041414,13.495208625041414,13.864770208019763,0,cw,demo,001,2025-02-28_07h12.54.786,2d-motion-direction-discrimination,2024.2.4,None,2025-02-28 07h13.08.126198 -0500,
13.878801125043537,,,,,hi,6,14,20,20,1,lin,1,2,0,135,6,1,4,start,1,14,13.86535137501778,13.878801125043537,14.377723874989897,14.661798832996283,15.16300266602775,15.179285207996145,15.179285207996145,15.464243500027806,1,ccw,demo,001,2025-02-28_07h12.54.786,2d-motion-direction-discrimination,2024.2.4,None,2025-02-28 07h13.08.126198 -0500,
15.478759500023443,,,,,hi,6,14,20,20,1,lin,1,2,0,45,2,1,5,start,1,14,15.464711583044846,15.478759500023443,15.979618250043131,16.263177415996324,16.76177004101919,16.76177004101919,16.76177004101919,17.363028416002635,1,ccw,demo,001,2025-02-28_07h12.54.786,2d-motion-direction-discrimination,2024.2.4,None,2025-02-28 07h13.08.126198 -0500,
17.36830433300929,,,,,cw,40,14,20,0,2,lin,1,2,None,45,0,1,6,start,2,14,17.363454750040546,17.36830433300929,17.864112332987133,18.151986290991772,18.663541375019122,18.663541375019122,18.663541375019122,18.962999291019514,1,ccw,demo,001,2025-02-28_07h12.54.786,2d-motion-direction-discrimination,2024.2.4,None,2025-02-28 07h13.08.126198 -0500,
18.96836920804344,,,,,ccw,40,-14,0,-20,2,lin,2,1,None,45,1,1,7,start,2,-14,18.9633999580401,18.96836920804344,19.479411875014193,19.762998750025872,20.26347354101017,20.26347354101017,20.26347354101017,20.636708125006407,0,cw,demo,001,2025-02-28_07h12.54.786,2d-motion-direction-discrimination,2024.2.4,None,2025-02-28 07h13.08.126198 -0500,
20.64518162503373,,,,,lo,6,-14,-20,-20,1,lin,2,1,0,135,7,2,8,up,1,-20,20.637223916011862,20.64518162503373,21.146833041042555,21.430717875016853,21.929679791035596,21.94618383300258,21.94618383300258,22.28115912503563,0,cw,demo,001,2025-02-28_07h12.54.786,2d-motion-direction-discrimination,2024.2.4,None,2025-02-28 07h13.08.126198 -0500,
22.2954244579887,,,,,ccw,40,-14,0,-20,2,lin,2,1,None,135,5,2,9,up,2,-12,22.281645541021135,22.2954244579887,22.796331708028447,23.096933583030477,23.595222583040595,23.57857158302795,23.57857158302795,23.96471145801479,0,cw,demo,001,2025-02-28_07h12.54.786,2d-motion-direction-discrimination,2024.2.4,None,2025-02-28 07h13.08.126198 -0500,
23.978855208028108,,,,,cw,40,14,20,0,2,lin,1,2,None,135,4,2,10,down,2,12,23.965158833016176,23.978855208028108,24.47975491604302,24.779188540996984,25.264183958002832,25.26184612500947,25.26184612500947,25.66917150001973,1,ccw,demo,001,2025-02-28_07h12.54.786,2d-motion-direction-discrimination,2024.2.4,None,2025-02-28 07h13.08.126198 -0500,
25.678726957994513,,,,,hi,6,14,20,20,1,lin,1,2,0,45,2,2,11,down,1,20,25.66981241601752,25.678726957994513,26.17865116603207,26.47957020800095,26.978535750007723,26.964992875000462,26.964992875000462,27.396431416040286,1,ccw,demo,001,2025-02-28_07h12.54.786,2d-motion-direction-discrimination,2024.2.4,None,2025-02-28 07h13.08.126198 -0500,
27.401988333032932,,,,,hi,6,14,20,20,1,lin,1,2,0,135,6,2,12,down,1,20,27.396868375013582,27.401988333032932,27.898414082999807,28.196210083027836,28.696817208023276,28.696817208023276,28.696817208023276,29.046362499997485,1,ccw,demo,001,2025-02-28_07h12.54.786,2d-motion-direction-discrimination,2024.2.4,None,2025-02-28 07h13.08.126198 -0500,
29.051319624995813,,,,,lo,6,-14,-20,-20,1,lin,2,1,0,45,3,2,13,up,1,-20,29.046784291043878,29.051319624995813,29.56279233301757,29.84611720801331,30.346480750013143,30.346480750013143,30.346480750013143,30.612625666020904,0,cw,demo,001,2025-02-28_07h12.54.786,2d-motion-direction-discrimination,2024.2.4,None,2025-02-28 07h13.08.126198 -0500,
30.616224625031464,,,,,ccw,40,-14,0,-20,2,lin,2,1,None,45,1,2,14,up,2,-12,30.613048541010357,30.616224625031464,31.12937195802806,31.39752050000243,31.89511412504362,31.897466958034784,31.897466958034784,32.246761000016704,0,cw,demo,001,2025-02-28_07h12.54.786,2d-motion-direction-discrimination,2024.2.4,None,2025-02-28 07h13.08.126198 -0500,
32.25216312502744,,,,,cw,40,14,20,0,2,lin,1,2,None,45,0,2,15,down,2,12,32.24733845802257,32.25216312502744,32.76279720803723,33.04531929100631,33.53104416601127,33.54529758304125,33.54529758304125,33.84996629098896,1,ccw,demo,001,2025-02-28_07h12.54.786,2d-motion-direction-discrimination,2024.2.4,None,2025-02-28 07h13.08.126198 -0500,
33.86207525001373,,,,,ccw,40,-14,0,-20,2,lin,2,1,None,135,5,3,16,up,2,-10,33.85055016604019,33.86207525001373,34.3631141250371,34.64513037499273,35.146202583040576,35.16358695802046,35.16358695802046,35.61467999999877,0,cw,demo,001,2025-02-28_07h12.54.786,2d-motion-direction-discrimination,2024.2.4,None,2025-02-28 07h13.08.126198 -0500,
35.620367750001606,,,,,hi,6,14,20,20,1,lin,1,2,0,135,6,3,17,down,1,20,35.615219500032254,35.620367750001606,36.129802333016414,36.42915579100372,36.91412029101048,36.91181358299218,36.91181358299218,37.17098666599486,1,ccw,demo,001,2025-02-28_07h12.54.786,2d-motion-direction-discrimination,2024.2.4,None,2025-02-28 07h13.08.126198 -0500,
37.17847508302657,,,,,cw,40,14,20,0,2,lin,1,2,None,135,4,3,18,down,2,10,37.17137312499108,37.17847508302657,37.679745666042436,37.97807695803931,38.479447333025746,38.479447333025746,38.479447333025746,38.94753791601397,1,ccw,demo,001,2025-02-28_07h12.54.786,2d-motion-direction-discrimination,2024.2.4,None,2025-02-28 07h13.08.126198 -0500,
38.96207675000187,,,,,lo,6,-14,-20,-20,1,lin,2,1,0,135,7,3,19,up,1,-20,38.94816729100421,38.96207675000187,39.44964612502372,39.744801666005515,40.23289291601395,40.245031791040674,40.245031791040674,40.56409858301049,0,cw,demo,001,2025-02-28_07h12.54.786,2d-motion-direction-discrimination,2024.2.4,None,2025-02-28 07h13.08.126198 -0500,
40.57879912503995,,,,,lo,6,-14,-20,-20,1,lin,2,1,0,45,3,3,20,up,1,-20,40.56443750002654,40.57879912503995,41.07940454100026,41.36192575003952,41.86479950003559,41.86479950003559,41.86479950003559,42.09640337503515,0,cw,demo,001,2025-02-28_07h12.54.786,2d-motion-direction-discrimination,2024.2.4,None,2025-02-28 07h13.08.126198 -0500,
42.10153604100924,,,,,cw,40,14,20,0,2,lin,1,2,None,45,0,3,21,down,2,10,42.09682416601572,42.10153604100924,42.59760229103267,42.896879540989175,43.39595708303386,43.39595708303386,43.39595708303386,43.8297821659944,1,ccw,demo,001,2025-02-28_07h12.54.786,2d-motion-direction-discrimination,2024.2.4,None,2025-02-28 07h13.08.126198 -0500,
43.835187958029564,,,,,ccw,40,-14,0,-20,2,lin,2,1,None,45,1,3,22,up,2,-10,43.830286083044484,43.835187958029564,44.34604129102081,44.629308375006076,45.129672957991716,45.129672957991716,45.129672957991716,45.31285895803012,0,cw,demo,001,2025-02-28_07h12.54.786,2d-motion-direction-discrimination,2024.2.4,None,2025-02-28 07h13.08.126198 -0500,
45.31794274999993,,,,,hi,6,14,20,20,1,lin,1,2,0,45,2,3,23,down,1,20,45.31324774998939,45.31794274999993,45.81554275000235,46.112763457989786,46.61328400002094,46.61328400002094,46.61328400002094,46.8675205000327,1,ccw,demo,001,2025-02-28_07h12.54.786,2d-motion-direction-discrimination,2024.2.4,None,2025-02-28 07h13.08.126198 -0500,
46.87873158301227,,,,,ccw,40,-14,0,-20,2,lin,2,1,None,135,5,4,24,up,2,-8,46.868985957989935,46.87873158301227,47.37924850004492,47.67929150001146,48.16497104102746,48.16497104102746,48.16497104102746,48.69574195804307,1,ccw,demo,001,2025-02-28_07h12.54.786,2d-motion-direction-discrimination,2024.2.4,None,2025-02-28 07h13.08.126198 -0500,
48.70083179103676,,,,,cw,40,14,20,0,2,lin,1,2,None,135,4,4,25,down,2,8,48.69624612503685,48.70083179103676,49.20087629102636,49.4868710830342,49.99598687503021,49.99598687503021,49.99598687503021,50.247186749998946,1,ccw,demo,001,2025-02-28_07h12.54.786,2d-motion-direction-discrimination,2024.2.4,None,2025-02-28 07h13.08.126198 -0500,
50.262154416006524,,,,,lo,6,-14,-20,-20,1,lin,2,1,0,135,7,4,26,up,1,-20,50.24777412501862,50.262154416006524,50.762612875027116,51.06235200003721,51.56332779099466,51.56332779099466,51.56332779099466,51.83301116601797,0,cw,demo,001,2025-02-28_07h12.54.786,2d-motion-direction-discrimination,2024.2.4,None,2025-02-28 07h13.08.126198 -0500,
51.845344458008185,,,,,lo,6,-14,-20,-20,1,lin,2,1,0,45,3,4,27,up,1,-20,51.83349470800022,51.845344458008185,52.34597120800754,52.64566029101843,53.13085829099873,53.12849479098804,53.12849479098804,53.86396287503885,0,cw,demo,001,2025-02-28_07h12.54.786,2d-motion-direction-discrimination,2024.2.4,None,2025-02-28 07h13.08.126198 -0500,
53.87876808299916,,,,,hi,6,14,20,20,1,lin,1,2,0,45,2,4,28,down,1,20,53.86456770799123,53.87876808299916,54.3663169160136,54.67994629102759,55.18001433298923,55.16277312499005,55.16277312499005,55.41400070802774,1,ccw,demo,001,2025-02-28_07h12.54.786,2d-motion-direction-discrimination,2024.2.4,None,2025-02-28 07h13.08.126198 -0500,
55.419139708043076,,,,,cw,40,14,20,0,2,lin,1,2,None,45,0,4,29,down,2,8,55.414521333004814,55.419139708043076,55.91874945804011,56.22922116599511,56.71733741601929,56.711889791011345,56.711889791011345,57.13098620803794,1,ccw,demo,001,2025-02-28_07h12.54.786,2d-motion-direction-discrimination,2024.2.4,None,2025-02-28 07h13.08.126198 -0500,
57.13633341604145,,,,,hi,6,14,20,20,1,lin,1,2,0,135,6,4,30,down,1,20,57.13170666602673,57.13633341604145,57.63247054099338,57.92960704100551,58.42976775002899,58.44690379098756,58.44690379098756,58.7978281659889,1,ccw,demo,001,2025-02-28_07h12.54.786,2d-motion-direction-discrimination,2024.2.4,None,2025-02-28 07h13.08.126198 -0500,
58.81195366603788,,,,,ccw,40,-14,0,-20,2,lin,2,1,None,45,1,4,31,up,2,-8,58.79832375003025,58.81195366603788,59.29702558304416,59.61315129103605,60.113104541029315,60.113104541029315,60.113104541029315,60.429735416022595,0,cw,demo,001,2025-02-28_07h12.54.786,2d-motion-direction-discrimination,2024.2.4,None,2025-02-28 07h13.08.126198 -0500,
60.4349202500307,,,,,cw,40,14,20,0,2,lin,1,2,None,45,0,5,32,down,2,6,60.43013970804168,60.4349202500307,60.93161966599291,61.2189577909885,61.729251708020456,61.729251708020456,61.729251708020456,61.9477270829957,1,ccw,demo,001,2025-02-28_07h12.54.786,2d-motion-direction-discrimination,2024.2.4,None,2025-02-28 07h13.08.126198 -0500,
61.96200341603253,,,,,ccw,40,-14,0,-20,2,lin,2,1,None,45,1,5,33,up,2,-6,61.948170125018805,61.96200341603253,62.462140166026074,62.74507987499237,63.23085691599408,63.24519579100888,63.24519579100888,64.08098754100502,1,ccw,demo,001,2025-02-28_07h12.54.786,2d-motion-direction-discrimination,2024.2.4,None,2025-02-28 07h13.08.126198 -0500,
64.09534945798805,,,,,cw,40,14,20,0,2,lin,1,2,None,135,4,5,34,down,2,6,64.0815640410292,64.09534945798805,64.59665645804489,64.87860766600352,65.37931408302393,65.39708770799916,65.39708770799916,65.83070166601101,1,ccw,demo,001,2025-02-28_07h12.54.786,2d-motion-direction-discrimination,2024.2.4,None,2025-02-28 07h13.08.126198 -0500,
65.84545299998717,,,,,hi,6,14,20,20,1,lin,1,2,0,135,6,5,35,down,1,20,65.83110437501455,65.84545299998717,66.34558170801029,66.6285149580217,67.1181710830424,67.12845133303199,67.12845133303199,67.48110508301761,1,ccw,demo,001,2025-02-28_07h12.54.786,2d-motion-direction-discrimination,2024.2.4,None,2025-02-28 07h13.08.126198 -0500,
67.49546604102943,,,,,hi,6,14,20,20,1,lin,1,2,0,45,2,5,36,down,1,20,67.48169545800192,67.49546604102943,67.99690508301137,68.27846466604387,68.77911412500544,68.78309520799667,68.78309520799667,69.01476033299696,1,ccw,demo,001,2025-02-28_07h12.54.786,2d-motion-direction-discrimination,2024.2.4,None,2025-02-28 07h13.08.126198 -0500,
69.03160287503852,,,,,lo,6,-14,-20,-20,1,lin,2,1,0,135,7,5,37,up,1,-20,69.01536725001642,69.03160287503852,69.5460339160054,69.8129322080058,70.3131375410012,70.32942466600798,70.32942466600798,70.6131666660076,0,cw,demo,001,2025-02-28_07h12.54.786,2d-motion-direction-discrimination,2024.2.4,None,2025-02-28 07h13.08.126198 -0500,
70.61898445803672,,,,,lo,6,-14,-20,-20,1,lin,2,1,0,45,3,5,38,up,1,-20,70.61370229104068,70.61898445803672,71.12978991604177,71.4128213750082,71.89764475001721,71.91188775002956,71.91188775002956,72.22973558300873,0,cw,demo,001,2025-02-28_07h12.54.786,2d-motion-direction-discrimination,2024.2.4,None,2025-02-28 07h13.08.126198 -0500,
72.23505737504456,,,,,ccw,40,-14,0,-20,2,lin,2,1,None,135,5,5,39,down,2,-10,72.23015150002902,72.23505737504456,72.73072254098952,73.01847870799247,73.52961595798843,73.52961595798843,73.52961595798843,73.65084750001552,0,cw,demo,001,2025-02-28_07h12.54.786,2d-motion-direction-discrimination,2024.2.4,None,2025-02-28 07h13.08.126198 -0500,
73.66198583302321,,,,,hi,6,14,20,20,1,lin,1,2,0,135,6,6,40,down,1,20,73.6512943750131,73.66198583302321,74.14969687501434,74.44814137503272,74.94643737503793,74.94643737503793,74.94643737503793,75.28124945802847,1,ccw,demo,001,2025-02-28_07h12.54.786,2d-motion-direction-discrimination,2024.2.4,None,2025-02-28 07h13.08.126198 -0500,
75.29540300002554,,,,,hi,6,14,20,20,1,lin,1,2,0,45,2,6,41,down,1,20,75.28178783302428,75.29540300002554,75.79612025001552,76.07861845800653,76.57925458298996,76.59684583300259,76.59684583300259,76.86652429099195,1,ccw,demo,001,2025-02-28_07h12.54.786,2d-motion-direction-discrimination,2024.2.4,None,2025-02-28 07h13.08.126198 -0500,
76.87870083301095,,,,,lo,6,-14,-20,-20,1,lin,2,1,0,45,3,6,42,up,1,-20,76.86700329103041,76.87870083301095,77.3791384579963,77.68025716603734,78.180194916029,78.180194916029,78.180194916029,78.30016916600289,0,cw,demo,001,2025-02-28_07h12.54.786,2d-motion-direction-discrimination,2024.2.4,None,2025-02-28 07h13.08.126198 -0500,
78.31186204100959,,,,,cw,40,14,20,0,2,lin,1,2,None,45,0,6,43,down,2,4,78.30075908300932,78.31186204100959,78.81330504099606,79.09650429099565,79.5965227910201,79.61296154098818,79.61296154098818,80.07968337502098,0,cw,demo,001,2025-02-28_07h12.54.786,2d-motion-direction-discrimination,2024.2.4,None,2025-02-28 07h13.08.126198 -0500,
80.08503462502267,,,,,lo,6,-14,-20,-20,1,lin,2,1,0,135,7,6,44,up,1,-20,80.08010391599964,80.08503462502267,80.58221362502081,80.87846691603772,81.37940741603961,81.37940741603961,81.37940741603961,81.78328237502137,0,cw,demo,001,2025-02-28_07h12.54.786,2d-motion-direction-discrimination,2024.2.4,None,2025-02-28 07h13.08.126198 -0500,
81.79486554104369,,,,,cw,40,14,20,0,2,lin,1,2,None,135,4,6,45,down,2,4,81.78382599999895,81.79486554104369,82.28099616599502,82.57914016599534,83.07950291602174,83.09620408300543,83.09620408300543,83.6451871250174,0,cw,demo,001,2025-02-28_07h12.54.786,2d-motion-direction-discrimination,2024.2.4,None,2025-02-28 07h13.08.126198 -0500,
83.64833312499104,,,,,ccw,40,-14,0,-20,2,lin,2,1,None,135,5,6,46,down,2,-10,83.64567345799878,83.64833312499104,84.16337420803029,84.44585066603031,84.94621304102475,84.94621304102475,84.94621304102475,85.11309900000924,0,cw,demo,001,2025-02-28_07h12.54.786,2d-motion-direction-discrimination,2024.2.4,None,2025-02-28 07h13.08.126198 -0500,
85.11820683302358,,,,,ccw,40,-14,0,-20,2,lin,2,1,None,45,1,6,47,down,2,-8,85.11351333302446,85.11820683302358,85.61183404101757,85.91374558303505,86.41173091600649,86.41173091600649,86.41173091600649,87.87975950003602,0,cw,demo,001,2025-02-28_07h12.54.786,2d-motion-direction-discrimination,2024.2.4,None,2025-02-28 07h13.08.126198 -0500,
87.88541445799638,,,,,cw,40,14,20,0,2,lin,1,2,None,45,0,7,48,up,2,6,87.88051958300639,87.88541445799638,88.38424654101254,88.67906925000716,89.179859958007,89.179859958007,89.179859958007,89.48190641601104,1,ccw,demo,001,2025-02-28_07h12.54.786,2d-motion-direction-discrimination,2024.2.4,None,2025-02-28 07h13.08.126198 -0500,
89.48783970798831,,,,,lo,6,-14,-20,-20,1,lin,2,1,0,45,3,7,49,up,1,-20,89.48251129098935,89.48783970798831,89.99573041603435,90.29586116602877,90.79627745802281,90.79627745802281,90.79627745802281,91.06458608299727,0,cw,demo,001,2025-02-28_07h12.54.786,2d-motion-direction-discrimination,2024.2.4,None,2025-02-28 07h13.08.126198 -0500,
91.07882883300772,,,,,hi,6,14,20,20,1,lin,1,2,0,135,6,7,50,down,1,20,91.06521429104032,91.07882883300772,91.57950220804196,91.88015425001504,92.37956908304477,92.3618273329921,92.3618273329921,92.69726129103219,1,ccw,demo,001,2025-02-28_07h12.54.786,2d-motion-direction-discrimination,2024.2.4,None,2025-02-28 07h13.08.126198 -0500,
92.71205441601342,,,,,cw,40,14,20,0,2,lin,1,2,None,135,4,7,51,up,2,6,92.697769624996,92.71205441601342,93.2124434580328,93.51304950000485,94.00074337504338,93.9962695830036,93.9962695830036,95.01314333302435,1,ccw,demo,001,2025-02-28_07h12.54.786,2d-motion-direction-discrimination,2024.2.4,None,2025-02-28 07h13.08.126198 -0500,
95.01884620799683,,,,,ccw,40,-14,0,-20,2,lin,2,1,None,45,1,7,52,down,2,-8,95.01360599999316,95.01884620799683,95.52960770804202,95.81286066601751,96.31340491602896,96.31340491602896,96.31340491602896,96.53072116599651,0,cw,demo,001,2025-02-28_07h12.54.786,2d-motion-direction-discrimination,2024.2.4,None,2025-02-28 07h13.08.126198 -0500,
96.54546125000343,,,,,hi,6,14,20,20,1,lin,1,2,0,45,2,7,53,down,1,20,96.53110679099336,96.54546125000343,97.03054387500742,97.32983766600955,97.82912425004179,97.846268333029,97.846268333029,98.21746424998855,1,ccw,demo,001,2025-02-28_07h12.54.786,2d-motion-direction-discrimination,2024.2.4,None,2025-02-28 07h13.08.126198 -0500,
98.22868870804086,,,,,ccw,40,-14,0,-20,2,lin,2,1,None,135,5,7,54,up,2,-8,98.21810420800466,98.22868870804086,98.72924933303148,99.01629137503915,99.52900733303977,99.52900733303977,99.52900733303977,99.81367045803927,0,cw,demo,001,2025-02-28_07h12.54.786,2d-motion-direction-discrimination,2024.2.4,None,2025-02-28 07h13.08.126198 -0500,
99.82862775004469,,,,,lo,6,-14,-20,-20,1,lin,2,1,0,135,7,7,55,up,1,-20,99.81409120804165,99.82862775004469,100.31416358303977,100.62916587502696,101.12958354101283,101.11336437502177,101.11336437502177,101.42965045804158,0,cw,demo,001,2025-02-28_07h12.54.786,2d-motion-direction-discrimination,2024.2.4,None,2025-02-28 07h13.08.126198 -0500,
101.43587908300105,,,,,cw,40,14,20,0,2,lin,1,2,None,135,4,8,56,up,2,6,101.43021479103481,101.43587908300105,101.93097958300496,102.22927641600836,102.73011416604277,102.73011416604277,102.73011416604277,103.23056104104035,1,ccw,demo,001,2025-02-28_07h12.54.786,2d-motion-direction-discrimination,2024.2.4,None,2025-02-28 07h13.08.126198 -0500,
103.24539083300624,,,,,ccw,40,-14,0,-20,2,lin,2,1,None,45,1,8,57,up,2,-6,103.23104420799064,103.24539083300624,103.74637850001454,104.0292860410409,104.53011650004191,104.5458522500121,104.5458522500121,105.51375112502137,1,ccw,demo,001,2025-02-28_07h12.54.786,2d-motion-direction-discrimination,2024.2.4,None,2025-02-28 07h13.08.126198 -0500,
105.52865666599246,,,,,cw,40,14,20,0,2,lin,1,2,None,45,0,8,58,up,2,6,105.51418516604463,105.52865666599246,106.02952224999899,106.3025568749872,106.81313495803624,106.8313035829924,106.8313035829924,107.19997766602319,1,ccw,demo,001,2025-02-28_07h12.54.786,2d-motion-direction-discrimination,2024.2.4,None,2025-02-28 07h13.08.126198 -0500,
107.21209029102465,,,,,ccw,40,-14,0,-20,2,lin,2,1,None,135,5,8,59,up,2,-8,107.20059270801721,107.21209029102465,107.71215766604291,107.99645633302862,108.49600949999876,108.51293937501032,108.51293937501032,108.78391141601605,0,cw,demo,001,2025-02-28_07h12.54.786,2d-motion-direction-discrimination,2024.2.4,None,2025-02-28 07h13.08.126198 -0500,
108.79539120802656,,,,,cw,40,14,20,0,2,lin,1,2,None,45,0,9,60,down,2,4,108.78546695801197,108.79539120802656,109.2967161660199,109.59677212499082,110.0961140000145,110.0961140000145,110.0961140000145,110.89582229102962,0,cw,demo,001,2025-02-28_07h12.54.786,2d-motion-direction-discrimination,2024.2.4,None,2025-02-28 07h13.08.126198 -0500,
110.90112283302005,,,,,cw,40,14,20,0,2,lin,1,2,None,135,4,9,61,down,2,4,110.89652037504129,110.90112283302005,111.39741462504026,111.69649995799409,112.19687174999854,112.19687174999854,112.19687174999854,112.78794566600118,0,cw,demo,001,2025-02-28_07h12.54.786,2d-motion-direction-discrimination,2024.2.4,None,2025-02-28 07h13.08.126198 -0500,
112.79517429100815,,,,,ccw,40,-14,0,-20,2,lin,2,1,None,45,1,9,62,down,2,-8,112.78828750003595,112.79517429100815,113.29602487501688,113.58539220801322,114.09692258300493,114.09692258300493,114.09692258300493,114.49934591603233,1,ccw,demo,001,2025-02-28_07h12.54.786,2d-motion-direction-discrimination,2024.2.4,None,2025-02-28 07h13.08.126198 -0500,
114.51211083302042,,,,,ccw,40,-14,0,-20,2,lin,2,1,None,135,5,9,63,up,2,-6,114.49975766602438,114.51211083302042,114.99998154101195,115.29726341599599,115.81257466599345,115.81257466599345,115.81257466599345,117.54643770802068,1,ccw,demo,001,2025-02-28_07h12.54.786,2d-motion-direction-discrimination,2024.2.4,None,2025-02-28 07h13.08.126198 -0500,
117.55224774999078,,,,,ccw,40,-14,0,-20,2,lin,2,1,None,45,1,10,64,down,2,-10,117.54702516604448,117.55224774999078,118.04945112502901,118.33540370804258,118.84630970802391,118.84630970802391,118.84630970802391,118.99999812501483,0,cw,demo,001,2025-02-28_07h12.54.786,2d-motion-direction-discrimination,2024.2.4,None,2025-02-28 07h13.08.126198 -0500,
119.01216391602065,,,,,cw,40,14,20,0,2,lin,1,2,None,45,0,10,65,up,2,6,119.00056362501346,119.01216391602065,119.5123821250163,119.79850174998865,120.29874900000868,120.29874900000868,120.29874900000868,120.56420379102929,1,ccw,demo,001,2025-02-28_07h12.54.786,2d-motion-direction-discrimination,2024.2.4,None,2025-02-28 07h13.08.126198 -0500,
120.57874508301029,,,,,cw,40,14,20,0,2,lin,1,2,None,135,4,10,66,up,2,6,120.56462875002762,120.57874508301029,121.06640620803228,121.36318612500327,121.8635920000379,121.88007516600192,121.88007516600192,122.44791220803745,0,cw,demo,001,2025-02-28_07h12.54.786,2d-motion-direction-discrimination,2024.2.4,None,2025-02-28 07h13.08.126198 -0500,
122.46214866603259,,,,,ccw,40,-14,0,-20,2,lin,2,1,None,135,5,10,67,down,2,-8,122.44863350002561,122.46214866603259,122.96240387501894,123.26300908299163,123.7617504580412,123.7451350830379,123.7451350830379,124.21421329100849,0,cw,demo,001,2025-02-28_07h12.54.786,2d-motion-direction-discrimination,2024.2.4,None,2025-02-28 07h13.08.126198 -0500,
124.21961783303414,,,,,ccw,40,-14,0,-20,2,lin,2,1,None,45,1,11,68,down,2,-10,124.21466141601559,124.21961783303414,124.73011429101462,125.01345391600626,125.51345525000943,125.52980529103661,125.52980529103661,126.04735141602578,0,cw,demo,001,2025-02-28_07h12.54.786,2d-motion-direction-discrimination,2024.2.4,None,2025-02-28 07h13.08.126198 -0500,
126.06208875001175,,,,,cw,40,14,20,0,2,lin,1,2,None,45,0,11,69,up,2,6,126.04795249999734,126.06208875001175,126.54787691601086,126.84675975004211,127.34583283303073,127.36244266602444,127.36244266602444,127.61310295801377,1,ccw,demo,001,2025-02-28_07h12.54.786,2d-motion-direction-discrimination,2024.2.4,None,2025-02-28 07h13.08.126198 -0500,
127.61822216602741,,,,,ccw,40,-14,0,-20,2,lin,2,1,None,135,5,11,70,down,2,-8,127.61351383302826,127.61822216602741,128.1293764160364,128.4018550000037,128.91270841599908,128.91270841599908,128.91270841599908,129.19640241604066,0,cw,demo,001,2025-02-28_07h12.54.786,2d-motion-direction-discrimination,2024.2.4,None,2025-02-28 07h13.08.126198 -0500,
129.20113170798868,,,,,cw,40,14,20,0,2,lin,1,2,None,135,4,11,71,up,2,8,129.1968143330305,129.20113170798868,129.71361391601386,129.9842840830097,130.49615120800445,130.49615120800445,130.49615120800445,130.76407791604288,1,ccw,demo,001,2025-02-28_07h12.54.786,2d-motion-direction-discrimination,2024.2.4,None,2025-02-28 07h13.08.126198 -0500,
130.77867625001818,,,,,ccw,40,-14,0,-20,2,lin,2,1,None,45,1,12,72,up,2,-8,130.76465950004058,130.77867625001818,131.2792609159951,131.56187462504022,132.0485681249993,132.06182762503158,132.06182762503158,132.53264229104389,0,cw,demo,001,2025-02-28_07h12.54.786,2d-motion-direction-discrimination,2024.2.4,None,2025-02-28 07h13.08.126198 -0500,
132.54540850000922,,,,,cw,40,14,20,0,2,lin,1,2,None,135,4,12,73,up,2,8,132.53409000003012,132.54540850000922,133.03376000002027,133.34601091599325,133.84654887503712,133.84654887503712,133.84654887503712,134.53030262503307,1,ccw,demo,001,2025-02-28_07h12.54.786,2d-motion-direction-discrimination,2024.2.4,None,2025-02-28 07h13.08.126198 -0500,
134.53344029100845,,,,,cw,40,14,20,0,2,lin,1,2,None,45,0,12,74,down,2,4,134.53062450001016,134.53344029100845,135.0294458750286,135.32968745799735,135.8283958749962,135.8283958749962,135.8283958749962,136.24697999999626,1,ccw,demo,001,2025-02-28_07h12.54.786,2d-motion-direction-discrimination,2024.2.4,None,2025-02-28 07h13.08.126198 -0500,
136.261637040996,,,,,ccw,40,-14,0,-20,2,lin,2,1,None,135,5,12,75,up,2,-6,136.2474689160008,136.261637040996,136.7624593329965,137.04650925000897,137.54623525001807,137.56298991601216,137.56298991601216,138.1140774160158,0,cw,demo,001,2025-02-28_07h12.54.786,2d-motion-direction-discrimination,2024.2.4,None,2025-02-28 07h13.08.126198 -0500,
138.1185109160142,,,,,cw,40,14,20,0,2,lin,1,2,None,135,4,13,76,down,2,6,138.11491195799317,138.1185109160142,138.63009720802074,138.91268658300396,139.3976592500112,139.41190033301245,139.41190033301245,139.7153182500042,1,ccw,demo,001,2025-02-28_07h12.54.786,2d-motion-direction-discrimination,2024.2.4,None,2025-02-28 07h13.08.126198 -0500,
139.72091054101475,,,,,ccw,40,-14,0,-20,2,lin,2,1,None,135,5,13,77,up,2,-6,139.71583345800173,139.72091054101475,140.22976033302257,140.51282699999865,140.997628000041,141.0152809160063,141.0152809160063,141.29799495800398,0,cw,demo,001,2025-02-28_07h12.54.786,2d-motion-direction-discrimination,2024.2.4,None,2025-02-28 07h13.08.126198 -0500,
141.3119824579917,,,,,ccw,40,-14,0,-20,2,lin,2,1,None,45,1,13,78,up,2,-8,141.29869662498822,141.3119824579917,141.8130124580348,142.11255245801294,142.61268616601592,142.61268616601592,142.61268616601592,143.19884366600309,0,cw,demo,001,2025-02-28_07h12.54.786,2d-motion-direction-discrimination,2024.2.4,None,2025-02-28 07h13.08.126198 -0500,
143.2120640409994,,,,,cw,40,14,20,0,2,lin,1,2,None,45,0,13,79,down,2,4,143.1994068750064,143.2120640409994,143.697171583015,144.01281454099808,144.51185454102233,144.49758466600906,144.49758466600906,145.49947166600032,1,ccw,demo,001,2025-02-28_07h12.54.786,2d-motion-direction-discrimination,2024.2.4,None,2025-02-28 07h13.08.126198 -0500,
145.50631233298918,,,,,ccw,40,-14,0,-20,2,lin,2,1,None,45,1,14,80,up,2,-6,145.50098491599783,145.50631233298918,146.01306249998743,146.31334637501277,146.8130424580304,146.8130424580304,146.8130424580304,147.1486701660324,0,cw,demo,001,2025-02-28_07h12.54.786,2d-motion-direction-discrimination,2024.2.4,None,2025-02-28 07h13.08.126198 -0500,
147.16216533299303,,,,,cw,40,14,20,0,2,lin,1,2,None,135,4,14,81,down,2,6,147.14926887501497,147.16216533299303,147.66320208302932,147.94629066600464,148.4467125000083,148.46335733303567,148.46335733303567,148.89621895801974,0,cw,demo,001,2025-02-28_07h12.54.786,2d-motion-direction-discrimination,2024.2.4,None,2025-02-28 07h13.08.126198 -0500,
148.90239225002006,,,,,ccw,40,-14,0,-20,2,lin,2,1,None,135,5,14,82,up,2,-4,148.8969170410419,148.90239225002006,149.39922754099825,149.6960039580008,150.1960614999989,150.1960614999989,150.1960614999989,150.93000929104164,0,cw,demo,001,2025-02-28_07h12.54.786,2d-motion-direction-discrimination,2024.2.4,None,2025-02-28 07h13.08.126198 -0500,
150.93600024998887,,,,,cw,40,14,20,0,2,lin,1,2,None,45,0,14,83,down,2,2,150.93064112501452,150.93600024998887,151.44636883301428,151.72905437502777,152.2181270410074,152.2181270410074,152.2181270410074,152.58253845799481,0,cw,demo,001,2025-02-28_07h12.54.786,2d-motion-direction-discrimination,2024.2.4,None,2025-02-28 07h13.08.126198 -0500,
152.59533104102593,,,,,cw,40,14,20,0,2,lin,1,2,None,135,4,15,84,up,2,8,152.5831280410057,152.59533104102593,153.09668787498958,153.38119245803682,153.8958619160112,153.8958619160112,153.8958619160112,154.28066395799397,1,ccw,demo,001,2025-02-28_07h12.54.786,2d-motion-direction-discrimination,2024.2.4,None,2025-02-28 07h13.08.126198 -0500,
154.29539387504337,,,,,ccw,40,-14,0,-20,2,lin,2,1,None,45,1,15,85,up,2,-6,154.28102516604122,154.29539387504337,154.79581591603346,155.07861437503016,155.57992083299905,155.58592333301203,155.58592333301203,155.83091029099887,0,cw,demo,001,2025-02-28_07h12.54.786,2d-motion-direction-discrimination,2024.2.4,None,2025-02-28 07h13.08.126198 -0500,
155.84532958304044,,,,,ccw,40,-14,0,-20,2,lin,2,1,None,135,5,15,86,up,2,-4,155.83154691604432,155.84532958304044,156.34586029103957,156.64580495801056,157.14636712503852,157.14636712503852,157.14636712503852,157.62942462501815,0,cw,demo,001,2025-02-28_07h12.54.786,2d-motion-direction-discrimination,2024.2.4,None,2025-02-28 07h13.08.126198 -0500,
157.6319817500189,,,,,cw,40,14,20,0,2,lin,1,2,None,45,0,15,87,up,2,4,157.62973137502559,157.6319817500189,158.14644383301493,158.42847433302086,158.92941391601926,158.92941391601926,158.92941391601926,159.4150207079947,0,cw,demo,001,2025-02-28_07h12.54.786,2d-motion-direction-discrimination,2024.2.4,None,2025-02-28 07h13.08.126198 -0500,
159.42798804101767,,,,,cw,40,14,20,0,2,lin,1,2,None,45,0,16,88,up,2,6,159.41555404104292,159.42798804101767,159.92954645800637,160.22967016603798,160.72847462503705,160.71502250002231,160.71502250002231,161.09747116599465,1,ccw,demo,001,2025-02-28_07h12.54.786,2d-motion-direction-discrimination,2024.2.4,None,2025-02-28 07h13.08.126198 -0500,
161.1120660000015,,,,,ccw,40,-14,0,-20,2,lin,2,1,None,135,5,16,89,up,2,-2,161.09808050002903,161.1120660000015,161.59820820804453,161.91365800000494,162.41179995803395,162.3950386249926,162.3950386249926,162.83205920801265,1,ccw,demo,001,2025-02-28_07h12.54.786,2d-motion-direction-discrimination,2024.2.4,None,2025-02-28 07h13.08.126198 -0500,
162.84541279100813,,,,,cw,40,14,20,0,2,lin,1,2,None,135,4,16,90,up,2,8,162.83270083303796,162.84541279100813,163.3325417910237,163.6283572500106,164.11431945802178,164.1462062500068,164.1462062500068,164.47932816599496,1,ccw,demo,001,2025-02-28_07h12.54.786,2d-motion-direction-discrimination,2024.2.4,None,2025-02-28 07h13.08.126198 -0500,
164.48287229100242,,,,,ccw,40,-14,0,-20,2,lin,2,1,None,45,1,16,91,up,2,-4,164.47979004099034,164.48287229100242,164.98074295802508,165.26529358304106,165.76419216603972,165.76419216603972,165.76419216603972,166.6994165829965,0,cw,demo,001,2025-02-28_07h12.54.786,2d-motion-direction-discrimination,2024.2.4,None,2025-02-28 07h13.08.126198 -0500,
166.71196529100416,,,,,ccw,40,-14,0,-20,2,lin,2,1,None,45,1,17,92,up,2,-4,166.69999862503028,166.71196529100416,167.19744470802834,167.49567208299413,167.9958611660404,168.01248458301416,168.01248458301416,169.01603295799578,1,ccw,demo,001,2025-02-28_07h12.54.786,2d-motion-direction-discrimination,2024.2.4,None,2025-02-28 07h13.08.126198 -0500,
169.02191112498986,,,,,cw,40,14,20,0,2,lin,1,2,None,45,0,17,93,up,2,6,169.01654770801542,169.02191112498986,169.52981283300323,169.81857912504347,170.31610387499677,170.31610387499677,170.31610387499677,170.83188945800066,0,cw,demo,001,2025-02-28_07h12.54.786,2d-motion-direction-discrimination,2024.2.4,None,2025-02-28 07h13.08.126198 -0500,
170.8450992910075,,,,,ccw,40,-14,0,-20,2,lin,2,1,None,135,5,17,94,down,2,-4,170.83243845799007,170.8450992910075,171.3457251660293,171.63287720800145,172.13099358300678,172.1284459999879,172.1284459999879,172.7015823330148,0,cw,demo,001,2025-02-28_07h12.54.786,2d-motion-direction-discrimination,2024.2.4,None,2025-02-28 07h13.08.126198 -0500,
172.7117479580338,,,,,cw,40,14,20,0,2,lin,1,2,None,135,4,17,95,down,2,6,172.7020493330201,172.7117479580338,173.21342475002166,173.5006728330045,174.01276845799293,174.01276845799293,174.01276845799293,174.72858049999923,0,cw,demo,001,2025-02-28_07h12.54.786,2d-motion-direction-discrimination,2024.2.4,None,2025-02-28 07h13.08.126198 -0500,
174.7319955410203,,,,,cw,40,14,20,0,2,lin,1,2,None,135,4,18,96,up,2,8,174.72888595802942,174.7319955410203,175.23231337498873,175.5185203750152,176.03011983301258,176.03011983301258,176.03011983301258,176.69931083300617,1,ccw,demo,001,2025-02-28_07h12.54.786,2d-motion-direction-discrimination,2024.2.4,None,2025-02-28 07h13.08.126198 -0500,
176.7120998330065,,,,,cw,40,14,20,0,2,lin,1,2,None,45,0,18,97,up,2,8,176.70017316599842,176.7120998330065,177.2133423750056,177.50068600004306,177.99578100000508,177.99578100000508,177.99578100000508,178.8497012500302,1,ccw,demo,001,2025-02-28_07h12.54.786,2d-motion-direction-discrimination,2024.2.4,None,2025-02-28 07h13.08.126198 -0500,
178.86207875004038,,,,,ccw,40,-14,0,-20,2,lin,2,1,None,45,1,18,98,down,2,-6,178.85022858303273,178.86207875004038,179.36310916603543,179.64818370802095,180.16285708302166,180.16285708302166,180.16285708302166,180.3967970830272,0,cw,demo,001,2025-02-28_07h12.54.786,2d-motion-direction-discrimination,2024.2.4,None,2025-02-28 07h13.08.126198 -0500,
180.4025317080086,,,,,ccw,40,-14,0,-20,2,lin,2,1,None,135,5,18,99,down,2,-4,180.39740250003524,180.4025317080086,180.91237337503117,181.19453095801873,181.69665754103335,181.69665754103335,181.69665754103335,182.34701983298874,0,cw,demo,001,2025-02-28_07h12.54.786,2d-motion-direction-discrimination,2024.2.4,None,2025-02-28 07h13.08.126198 -0500,
182.36176579102175,,,,,ccw,40,-14,0,-20,2,lin,2,1,None,45,1,19,100,down,2,-6,182.34756512503373,182.36176579102175,182.86304433300393,183.14536291599507,183.63081495801453,183.64508162502898,183.64508162502898,183.89812354103196,0,cw,demo,001,2025-02-28_07h12.54.786,2d-motion-direction-discrimination,2024.2.4,None,2025-02-28 07h13.08.126198 -0500,
183.9033778749872,,,,,cw,40,14,20,0,2,lin,1,2,None,135,4,19,101,up,2,8,183.89858508302132,183.9033778749872,184.40013925003586,184.70141012500972,185.2134839160135,185.1963006250444,185.1963006250444,186.78092108300189,0,cw,demo,001,2025-02-28_07h12.54.786,2d-motion-direction-discrimination,2024.2.4,None,2025-02-28 07h13.08.126198 -0500,
186.79534254100872,,,,,cw,40,14,20,0,2,lin,1,2,None,45,0,19,102,up,2,8,186.78153704100987,186.79534254100872,187.29597420804203,187.58002462500008,188.0784587910166,188.0784587910166,188.0784587910166,188.58064783300506,0,cw,demo,001,2025-02-28_07h12.54.786,2d-motion-direction-discrimination,2024.2.4,None,2025-02-28 07h13.08.126198 -0500,
188.59488120803144,,,,,ccw,40,-14,0,-20,2,lin,2,1,None,135,5,19,103,up,2,-2,188.581089000043,188.59488120803144,189.0962838330306,189.38520225003595,189.89535062504,189.89535062504,189.89535062504,190.66686987504363,1,ccw,demo,001,2025-02-28_07h12.54.786,2d-motion-direction-discrimination,2024.2.4,None,2025-02-28 07h13.08.126198 -0500,
190.67876545799663,,,,,cw,40,14,20,0,2,lin,1,2,None,135,4,20,104,up,2,10,190.66752229101257,190.67876545799663,191.16411154100206,191.46419725002488,191.96180562500376,191.96565004100557,191.96565004100557,192.31426650000503,0,cw,demo,001,2025-02-28_07h12.54.786,2d-motion-direction-discrimination,2024.2.4,None,2025-02-28 07h13.08.126198 -0500,
192.3287709580036,,,,,ccw,40,-14,0,-20,2,lin,2,1,None,135,5,20,105,down,2,-4,192.3148597080144,192.3287709580036,192.82918674999382,193.11209683300694,193.61353433300974,193.62932649999857,193.62932649999857,193.89917766599683,1,ccw,demo,001,2025-02-28_07h12.54.786,2d-motion-direction-discrimination,2024.2.4,None,2025-02-28 07h13.08.126198 -0500,
193.91169316601008,,,,,ccw,40,-14,0,-20,2,lin,2,1,None,45,1,20,106,up,2,-4,193.89969516603742,193.91169316601008,194.3989958750317,194.71279858303024,195.2119651249959,195.2119651249959,195.2119651249959,195.5963851250126,0,cw,demo,001,2025-02-28_07h12.54.786,2d-motion-direction-discrimination,2024.2.4,None,2025-02-28 07h13.08.126198 -0500,
195.60224316600943,,,,,cw,40,14,20,0,2,lin,1,2,None,45,0,20,107,up,2,10,195.59715091600083,195.60224316600943,196.1126331660198,196.396313166013,196.8962844160269,196.8962844160269,196.8962844160269,197.16626333299791,1,ccw,demo,001,2025-02-28_07h12.54.786,2d-motion-direction-discrimination,2024.2.4,None,2025-02-28 07h13.08.126198 -0500,
197.1784749579965,,,,,cw,40,14,20,0,2,lin,1,2,None,45,0,21,108,up,2,10,197.16681141604204,197.1784749579965,197.66406479099533,197.97904041601578,198.47944779100362,198.46316108299652,198.46316108299652,198.88295729103265,1,ccw,demo,001,2025-02-28_07h12.54.786,2d-motion-direction-discrimination,2024.2.4,None,2025-02-28 07h13.08.126198 -0500,
198.89535033301217,,,,,ccw,40,-14,0,-20,2,lin,2,1,None,45,1,21,109,up,2,-4,198.88344829098787,198.89535033301217,199.39564441604307,199.6960208750097,200.19638379104435,200.19638379104435,200.19638379104435,200.4796951659955,1,ccw,demo,001,2025-02-28_07h12.54.786,2d-motion-direction-discrimination,2024.2.4,None,2025-02-28 07h13.08.126198 -0500,
200.48531300004106,,,,,ccw,40,-14,0,-20,2,lin,2,1,None,135,5,21,110,down,2,-6,200.48013033298776,200.48531300004106,200.98149191599805,201.28000270802295,201.778999916045,201.778999916045,201.778999916045,202.18127800000366,0,cw,demo,001,2025-02-28_07h12.54.786,2d-motion-direction-discrimination,2024.2.4,None,2025-02-28 07h13.08.126198 -0500,
202.19539345800877,,,,,cw,40,14,20,0,2,lin,1,2,None,135,4,21,111,up,2,12,202.18190366600174,202.19539345800877,202.68073745799484,202.99617516604485,203.49615600000834,203.49615600000834,203.49615600000834,204.26462125004036,1,ccw,demo,001,2025-02-28_07h12.54.786,2d-motion-direction-discrimination,2024.2.4,None,2025-02-28 07h13.08.126198 -0500,
204.27824574999977,,,,,ccw,40,-14,0,-20,2,lin,2,1,None,45,1,22,112,down,2,-6,204.26512458303478,204.27824574999977,204.76679404103197,205.07965791603783,205.5795463329996,205.5795463329996,205.5795463329996,205.96277320804074,0,cw,demo,001,2025-02-28_07h12.54.786,2d-motion-direction-discrimination,2024.2.4,None,2025-02-28 07h13.08.126198 -0500,
205.96807050000643,,,,,cw,40,14,20,0,2,lin,1,2,None,135,4,22,113,up,2,12,205.96324670803733,205.96807050000643,206.48016312503023,206.76298562501324,207.26283662504284,207.26283662504284,207.26283662504284,207.72973200003617,1,ccw,demo,001,2025-02-28_07h12.54.786,2d-motion-direction-discrimination,2024.2.4,None,2025-02-28 07h13.08.126198 -0500,
207.7346632910194,,,,,ccw,40,-14,0,-20,2,lin,2,1,None,135,5,22,114,down,2,-6,207.73016654100502,207.7346632910194,208.23423537501367,208.52920354099479,209.02976983302506,209.02976983302506,209.02976983302506,209.11398491600994,0,cw,demo,001,2025-02-28_07h12.54.786,2d-motion-direction-discrimination,2024.2.4,None,2025-02-28 07h13.08.126198 -0500,
209.12876437499654,,,,,cw,40,14,20,0,2,lin,1,2,None,45,0,22,115,down,2,8,209.11460999998963,209.12876437499654,209.63020008301828,209.91268541599857,210.41280916600954,210.41280916600954,210.41280916600954,210.86317879101261,1,ccw,demo,001,2025-02-28_07h12.54.786,2d-motion-direction-discrimination,2024.2.4,None,2025-02-28 07h13.08.126198 -0500,
210.86872262501856,,,,,cw,40,14,20,0,2,lin,1,2,None,135,4,23,116,down,2,10,210.86370166600682,210.86872262501856,211.3795921659912,211.66264783299994,212.15183645801153,212.15183645801153,212.15183645801153,212.5634354579961,1,ccw,demo,001,2025-02-28_07h12.54.786,2d-motion-direction-discrimination,2024.2.4,None,2025-02-28 07h13.08.126198 -0500,
212.56903141603107,,,,,ccw,40,-14,0,-20,2,lin,2,1,None,45,1,23,117,down,2,-6,212.5638966250117,212.56903141603107,213.07971429103054,213.361784290988,213.847540458024,213.86174575000769,213.86174575000769,214.23321958299493,1,ccw,demo,001,2025-02-28_07h12.54.786,2d-motion-direction-discrimination,2024.2.4,None,2025-02-28 07h13.08.126198 -0500,
214.24534850002965,,,,,cw,40,14,20,0,2,lin,1,2,None,45,0,23,118,down,2,8,214.2339800830232,214.24534850002965,214.74621454102453,215.046664833033,215.5449845000403,215.52851262502372,215.52851262502372,215.78139066603035,1,ccw,demo,001,2025-02-28_07h12.54.786,2d-motion-direction-discrimination,2024.2.4,None,2025-02-28 07h13.08.126198 -0500,
215.79525237501366,,,,,ccw,40,-14,0,-20,2,lin,2,1,None,135,5,23,119,up,2,-4,215.78183699998772,215.79525237501366,216.29675325000426,216.5846934579895,217.09623862500302,217.09623862500302,217.09623862500302,217.63368633302161,0,cw,demo,001,2025-02-28_07h12.54.786,2d-motion-direction-discrimination,2024.2.4,None,2025-02-28 07h13.08.126198 -0500,
217.64505404100055,,,,,ccw,40,-14,0,-20,2,lin,2,1,None,135,5,24,120,up,2,-4,217.63443616603035,217.64505404100055,218.14629066601628,218.4468404999934,218.94505866599502,218.93419845803874,218.93419845803874,220.7799721659976,0,cw,demo,001,2025-02-28_07h12.54.786,2d-motion-direction-discrimination,2024.2.4,None,2025-02-28 07h13.08.126198 -0500,
220.78401220799424,,,,,cw,40,14,20,0,2,lin,1,2,None,45,0,24,121,down,2,6,220.78073404100724,220.78401220799424,221.29574979102472,221.57925379101653,222.06417683302425,222.07850179099478,222.07850179099478,222.39637270802632,1,ccw,demo,001,2025-02-28_07h12.54.786,2d-motion-direction-discrimination,2024.2.4,None,2025-02-28 07h13.08.126198 -0500,
222.40214783302508,,,,,ccw,40,-14,0,-20,2,lin,2,1,None,45,1,24,122,down,2,-8,222.3968613750185,222.40214783302508,222.8973579580197,223.19642470800318,223.6943086659885,223.6943086659885,223.6943086659885,223.90061304101255,0,cw,demo,001,2025-02-28_07h12.54.786,2d-motion-direction-discrimination,2024.2.4,None,2025-02-28 07h13.08.126198 -0500,
223.91189716599183,,,,,cw,40,14,20,0,2,lin,1,2,None,135,4,24,123,down,2,10,223.90122970798984,223.91189716599183,224.41312237503007,224.7128744579968,225.21308958303416,225.21308958303416,225.21308958303416,226.6813642079942,1,ccw,demo,001,2025-02-28_07h12.54.786,2d-motion-direction-discrimination,2024.2.4,None,2025-02-28 07h13.08.126198 -0500,
226.68700408301083,,,,,cw,40,14,20,0,2,lin,1,2,None,45,0,25,124,down,2,6,226.68199479102623,226.68700408301083,227.19672841602005,227.496404250036,227.99473770800978,227.97802141599823,227.97802141599823,228.49750866601244,1,ccw,demo,001,2025-02-28_07h12.54.786,2d-motion-direction-discrimination,2024.2.4,None,2025-02-28 07h13.08.126198 -0500,
228.51210366602754,,,,,ccw,40,-14,0,-20,2,lin,2,1,None,45,1,25,125,down,2,-8,228.4980925830314,228.51210366602754,228.99935954099055,229.31269170803716,229.81297879101476,229.81297879101476,229.81297879101476,230.16299099999014,0,cw,demo,001,2025-02-28_07h12.54.786,2d-motion-direction-discrimination,2024.2.4,None,2025-02-28 07h13.08.126198 -0500,
230.16855991602642,,,,,ccw,40,-14,0,-20,2,lin,2,1,None,135,5,25,126,up,2,-2,230.16341712500434,230.16855991602642,230.66393233300187,230.96345962502528,231.4627960830112,231.4627960830112,231.4627960830112,231.96591016603634,0,cw,demo,001,2025-02-28_07h12.54.786,2d-motion-direction-discrimination,2024.2.4,None,2025-02-28 07h13.08.126198 -0500,
231.97856537502958,,,,,cw,40,14,20,0,2,lin,1,2,None,135,4,25,127,down,2,8,231.96653475001222,231.97856537502958,232.47940579103306,232.7790790410363,233.27950291603338,233.27950291603338,233.27950291603338,233.51301441603573,1,ccw,demo,001,2025-02-28_07h12.54.786,2d-motion-direction-discrimination,2024.2.4,None,2025-02-28 07h13.08.126198 -0500,
233.51823491603136,,,,,cw,40,14,20,0,2,lin,1,2,None,135,4,26,128,down,2,8,233.5134162500035,233.51823491603136,234.01175620802678,234.3117222909932,234.81274029100314,234.81274029100314,234.81274029100314,235.12962295801844,1,ccw,demo,001,2025-02-28_07h12.54.786,2d-motion-direction-discrimination,2024.2.4,None,2025-02-28 07h13.08.126198 -0500,
235.13501054100925,,,,,cw,40,14,20,0,2,lin,1,2,None,45,0,26,129,down,2,4,235.13004091603216,235.13501054100925,235.64614975004224,235.929166832997,236.41422508301912,236.4284101660014,236.4284101660014,236.8628626660211,1,ccw,demo,001,2025-02-28_07h12.54.786,2d-motion-direction-discrimination,2024.2.4,None,2025-02-28 07h13.08.126198 -0500,
236.86854175000917,,,,,ccw,40,-14,0,-20,2,lin,2,1,None,45,1,26,130,up,2,-6,236.8636150410166,236.86854175000917,237.36177379102446,237.66243162500905,238.16295720799826,238.16295720799826,238.16295720799826,238.51435791602125,0,cw,demo,001,2025-02-28_07h12.54.786,2d-motion-direction-discrimination,2024.2.4,None,2025-02-28 07h13.08.126198 -0500,
238.51964895799756,,,,,ccw,40,-14,0,-20,2,lin,2,1,None,135,5,26,131,up,2,-2,238.5151619160315,238.51964895799756,239.0150189580163,239.31268079101574,239.81236333301058,239.82919916603714,239.82919916603714,240.5334331250051,1,ccw,demo,001,2025-02-28_07h12.54.786,2d-motion-direction-discrimination,2024.2.4,None,2025-02-28 07h13.08.126198 -0500,
240.54460449999897,,,,,cw,40,14,20,0,2,lin,1,2,None,135,4,27,132,down,2,6,240.53424733300926,240.54460449999897,241.03104816604173,241.3461217500153,241.83551045804052,241.82848870800808,241.82848870800808,242.14697925001383,1,ccw,demo,001,2025-02-28_07h12.54.786,2d-motion-direction-discrimination,2024.2.4,None,2025-02-28 07h13.08.126198 -0500,
242.15259050001623,,,,,cw,40,14,20,0,2,lin,1,2,None,45,0,27,133,down,2,4,242.14746404101606,242.15259050001623,242.66278187499847,242.94515691604465,243.44644875003723,243.44644875003723,243.44644875003723,243.71554458304308,0,cw,demo,001,2025-02-28_07h12.54.786,2d-motion-direction-discrimination,2024.2.4,None,2025-02-28 07h13.08.126198 -0500,
243.72858637501486,,,,,ccw,40,-14,0,-20,2,lin,2,1,None,135,5,27,134,down,2,-4,243.7158996250364,243.72858637501486,244.22985337499995,244.52916491602082,245.0292864580406,245.0292864580406,245.0292864580406,245.38111779099563,0,cw,demo,001,2025-02-28_07h12.54.786,2d-motion-direction-discrimination,2024.2.4,None,2025-02-28 07h13.08.126198 -0500,
245.39541954098968,,,,,ccw,40,-14,0,-20,2,lin,2,1,None,45,1,27,135,up,2,-6,245.3818236660445,245.39541954098968,245.8961615000153,246.1958827500348,246.6966859580134,246.6966859580134,246.6966859580134,247.08415958302794,1,ccw,demo,001,2025-02-28_07h12.54.786,2d-motion-direction-discrimination,2024.2.4,None,2025-02-28 07h13.08.126198 -0500,
247.0950647080317,,,,,ccw,40,-14,0,-20,2,lin,2,1,None,45,1,28,136,down,2,-8,247.0846649580053,247.0950647080317,247.5960083330283,247.89613816601923,248.39606883301167,248.39606883301167,248.39606883301167,248.7991326249903,0,cw,demo,001,2025-02-28_07h12.54.786,2d-motion-direction-discrimination,2024.2.4,None,2025-02-28 07h13.08.126198 -0500,
248.81192712503253,,,,,cw,40,14,20,0,2,lin,1,2,None,45,0,28,137,up,2,6,248.79963887500344,248.81192712503253,249.3125362910214,249.61231916601537,250.11420483299298,250.11420483299298,250.11420483299298,250.4808888330008,1,ccw,demo,001,2025-02-28_07h12.54.786,2d-motion-direction-discrimination,2024.2.4,None,2025-02-28 07h13.08.126198 -0500,
250.49542329099495,,,,,cw,40,14,20,0,2,lin,1,2,None,135,4,28,138,down,2,6,250.48153387499042,250.49542329099495,250.99666733300546,251.29574870801298,251.79612395801814,251.79612395801814,251.79612395801814,252.2306552079972,1,ccw,demo,001,2025-02-28_07h12.54.786,2d-motion-direction-discrimination,2024.2.4,None,2025-02-28 07h13.08.126198 -0500,
252.24532729102066,,,,,ccw,40,-14,0,-20,2,lin,2,1,None,135,5,28,139,down,2,-4,252.2311348330113,252.24532729102066,252.74661583302077,253.02912575000664,253.5298705410096,253.5298705410096,253.5298705410096,253.89915087498957,0,cw,demo,001,2025-02-28_07h12.54.786,2d-motion-direction-discrimination,2024.2.4,None,2025-02-28 07h13.08.126198 -0500,
253.911695583025,,,,,cw,40,14,20,0,2,lin,1,2,None,45,0,29,140,up,2,6,253.899630791042,253.911695583025,254.3972370410338,254.70149895799113,255.2126538750017,255.2126538750017,255.2126538750017,255.56430587504292,1,ccw,demo,001,2025-02-28_07h12.54.786,2d-motion-direction-discrimination,2024.2.4,None,2025-02-28 07h13.08.126198 -0500,
255.57854954100912,,,,,ccw,40,-14,0,-20,2,lin,2,1,None,135,5,29,141,up,2,-2,255.56485554104438,255.57854954100912,256.0797731660423,256.3795481660054,256.87996541603934,256.87996541603934,256.87996541603934,257.23060887499014,0,cw,demo,001,2025-02-28_07h12.54.786,2d-motion-direction-discrimination,2024.2.4,None,2025-02-28 07h13.08.126198 -0500,
257.24470979103353,,,,,ccw,40,-14,0,-20,2,lin,2,1,None,45,1,29,142,down,2,-8,257.2312360830256,257.24470979103353,257.7460362500278,258.0291167910327,258.53014849999454,258.5459071660298,258.5459071660298,258.86456029099645,0,cw,demo,001,2025-02-28_07h12.54.786,2d-motion-direction-discrimination,2024.2.4,None,2025-02-28 07h13.08.126198 -0500,
258.8785960410023,,,,,cw,40,14,20,0,2,lin,1,2,None,135,4,29,143,down,2,4,258.8649952500127,258.8785960410023,259.37998266599607,259.6796048330143,260.18005529104266,260.18005529104266,260.18005529104266,260.58051599998726,1,ccw,demo,001,2025-02-28_07h12.54.786,2d-motion-direction-discrimination,2024.2.4,None,2025-02-28 07h13.08.126198 -0500,
260.5954402910429,,,,,cw,40,14,20,0,2,lin,1,2,None,45,0,30,144,down,2,4,260.5810915000038,260.5954402910429,261.08069958299166,261.37947958300356,261.88036154099973,261.89576162502635,261.89576162502635,262.6809066660353,0,cw,demo,001,2025-02-28_07h12.54.786,2d-motion-direction-discrimination,2024.2.4,None,2025-02-28 07h13.08.126198 -0500,
262.6953514160123,,,,,ccw,40,-14,0,-20,2,lin,2,1,None,45,1,30,145,up,2,-6,262.6814454580308,262.6953514160123,263.1823502500192,263.4954307079897,263.9958522079978,263.9958522079978,263.9958522079978,264.2462478330126,0,cw,demo,001,2025-02-28_07h12.54.786,2d-motion-direction-discrimination,2024.2.4,None,2025-02-28 07h13.08.126198 -0500,
264.25185870804125,,,,,cw,40,14,20,0,2,lin,1,2,None,135,4,30,146,down,2,4,264.24668741598725,264.25185870804125,264.762676916027,265.04578808299266,265.54657966602826,265.54657966602826,265.54657966602826,266.94734966603573,0,cw,demo,001,2025-02-28_07h12.54.786,2d-motion-direction-discrimination,2024.2.4,None,2025-02-28 07h13.08.126198 -0500,
266.9618277500267,,,,,ccw,40,-14,0,-20,2,lin,2,1,None,135,5,30,147,up,2,-2,266.9479693750036,266.9618277500267,267.4628743749927,267.7445970000117,268.23098350001965,268.24450791603886,268.24450791603886,268.6337760000024,1,ccw,demo,001,2025-02-28_07h12.54.786,2d-motion-direction-discrimination,2024.2.4,None,2025-02-28 07h13.08.126198 -0500,
268.6452940829913,,,,,cw,40,14,20,0,2,lin,1,2,None,135,4,31,148,up,2,6,268.63425941602327,268.6452940829913,269.1464882080327,269.4457686250098,269.94595258298796,269.94595258298796,269.94595258298796,270.4796319580055,0,cw,demo,001,2025-02-28_07h12.54.786,2d-motion-direction-discrimination,2024.2.4,None,2025-02-28 07h13.08.126198 -0500,
270.4850753330393,,,,,cw,40,14,20,0,2,lin,1,2,None,45,0,31,149,up,2,6,270.4800491250353,270.4850753330393,270.9807527080411,271.2796639580047,271.7793597080163,271.7793597080163,271.7793597080163,272.1811386659974,1,ccw,demo,001,2025-02-28_07h12.54.786,2d-motion-direction-discrimination,2024.2.4,None,2025-02-28 07h13.08.126198 -0500,
272.195562125009,,,,,ccw,40,-14,0,-20,2,lin,2,1,None,135,5,31,150,down,2,-4,272.1817640000372,272.195562125009,272.68042712501483,272.99611108301906,273.4961624999996,273.4961624999996,273.4961624999996,273.9624695000239,0,cw,demo,001,2025-02-28_07h12.54.786,2d-motion-direction-discrimination,2024.2.4,None,2025-02-28 07h13.08.126198 -0500,
273.9660777079989,,,,,ccw,40,-14,0,-20,2,lin,2,1,None,45,1,31,151,up,2,-6,273.9629975830321,273.9660777079989,274.48004979098914,274.7527695830213,275.263078708027,275.263078708027,275.263078708027,275.6493110000156,0,cw,demo,001,2025-02-28_07h12.54.786,2d-motion-direction-discrimination,2024.2.4,None,2025-02-28 07h13.08.126198 -0500,
275.6619468330173,,,,,ccw,40,-14,0,-20,2,lin,2,1,None,135,5,32,152,down,2,-4,275.6498931660317,275.6619468330173,276.1498148330138,276.4628766250098,276.96326854103245,276.96326854103245,276.96326854103245,277.4503791250172,0,cw,demo,001,2025-02-28_07h12.54.786,2d-motion-direction-discrimination,2024.2.4,None,2025-02-28 07h13.08.126198 -0500,
277.46192508301465,,,,,cw,40,14,20,0,2,lin,1,2,None,135,4,32,153,up,2,8,277.4510202500387,277.46192508301465,277.96326566603966,278.2449351249961,278.74669679102954,278.76270104100695,278.76270104100695,279.21258508303436,1,ccw,demo,001,2025-02-28_07h12.54.786,2d-motion-direction-discrimination,2024.2.4,None,2025-02-28 07h13.08.126198 -0500,
279.2164225000306,,,,,cw,40,14,20,0,2,lin,1,2,None,45,0,32,154,up,2,6,279.21308983303607,279.2164225000306,279.72931554104434,280.01296387502225,280.5117737080436,280.5117737080436,280.5117737080436,281.0295566249988,0,cw,demo,001,2025-02-28_07h12.54.786,2d-motion-direction-discrimination,2024.2.4,None,2025-02-28 07h13.08.126198 -0500,
281.03597654099576,,,,,ccw,40,-14,0,-20,2,lin,2,1,None,45,1,32,155,up,2,-4,281.03004987502936,281.03597654099576,281.54586133302655,281.82940816599876,282.3298968329909,282.3298968329909,282.3298968329909,284.2327838750207,0,cw,demo,001,2025-02-28_07h12.54.786,2d-motion-direction-discrimination,2024.2.4,None,2025-02-28 07h13.08.126198 -0500,
284.2448375830427,,,,,cw,40,14,20,0,2,lin,1,2,None,135,4,33,156,up,2,8,284.2334230830311,284.2448375830427,284.7465965000447,285.04660358303227,285.5450670000282,285.5283109160373,285.5283109160373,287.4630324160098,1,ccw,demo,001,2025-02-28_07h12.54.786,2d-motion-direction-discrimination,2024.2.4,None,2025-02-28 07h13.08.126198 -0500,
287.4688905410003,,,,,ccw,40,-14,0,-20,2,lin,2,1,None,45,1,33,157,up,2,-4,287.46353333303705,287.4688905410003,287.97971912502544,288.26093749998836,288.75027316599153,288.75027316599153,288.75027316599153,289.113350041036,0,cw,demo,001,2025-02-28_07h12.54.786,2d-motion-direction-discrimination,2024.2.4,None,2025-02-28 07h13.08.126198 -0500,
289.11779487499734,,,,,ccw,40,-14,0,-20,2,lin,2,1,None,135,5,33,158,up,2,-2,289.1136795830098,289.11779487499734,289.61580283299554,289.91299537499435,290.4125790410326,290.4125790410326,290.4125790410326,290.89630220801337,0,cw,demo,001,2025-02-28_07h12.54.786,2d-motion-direction-discrimination,2024.2.4,None,2025-02-28 07h13.08.126198 -0500,
290.9016005000449,,,,,cw,40,14,20,0,2,lin,1,2,None,45,0,33,159,up,2,8,290.89670920802746,290.9016005000449,291.4134377500159,291.6950430829893,292.1960907499888,292.1960907499888,292.1960907499888,292.46496554103214,1,ccw,demo,001,2025-02-28_07h12.54.786,2d-motion-direction-discrimination,2024.2.4,None,2025-02-28 07h13.08.126198 -0500,
292.47874812502414,,,,,ccw,40,-14,0,-20,2,lin,2,1,None,45,1,34,160,up,2,-2,292.46569762501167,292.47874812502414,292.9793316660216,293.27977320802165,293.78001366602257,293.78001366602257,293.78001366602257,294.11599370802287,1,ccw,demo,001,2025-02-28_07h12.54.786,2d-motion-direction-discrimination,2024.2.4,None,2025-02-28 07h13.08.126198 -0500,
294.1285089160083,,,,,cw,40,14,20,0,2,lin,1,2,None,135,4,34,161,down,2,6,294.1163548330078,294.1285089160083,294.61548704101006,294.9184748750413,295.4298832080094,295.4298832080094,295.4298832080094,295.76408216601703,1,ccw,demo,001,2025-02-28_07h12.54.786,2d-motion-direction-discrimination,2024.2.4,None,2025-02-28 07h13.08.126198 -0500,
295.7787284160149,,,,,ccw,40,-14,0,-20,2,lin,2,1,None,135,5,34,162,up,2,-2,295.7646020409884,295.7787284160149,296.26596537500154,296.57909487502184,297.0795332080452,297.0632523749955,297.0632523749955,297.516121749999,0,cw,demo,001,2025-02-28_07h12.54.786,2d-motion-direction-discrimination,2024.2.4,None,2025-02-28 07h13.08.126198 -0500,
297.52865049999673,,,,,cw,40,14,20,0,2,lin,1,2,None,45,0,34,163,up,2,8,297.516735540994,297.52865049999673,298.0290374160395,298.3297684999998,298.8291278750403,298.8291278750403,298.8291278750403,299.2473670410109,1,ccw,demo,001,2025-02-28_07h12.54.786,2d-motion-direction-discrimination,2024.2.4,None,2025-02-28 07h13.08.126198 -0500,
299.2619583749911,,,,,cw,40,14,20,0,2,lin,1,2,None,135,4,35,164,down,2,6,299.2478465830209,299.2619583749911,299.76260087499395,300.0502738330397,300.54683729104,300.54683729104,300.54683729104,300.8975489580189,0,cw,demo,001,2025-02-28_07h12.54.786,2d-motion-direction-discrimination,2024.2.4,None,2025-02-28 07h13.08.126198 -0500,
300.912068790989,,,,,ccw,40,-14,0,-20,2,lin,2,1,None,135,5,35,165,up,2,0,300.8980653330218,300.912068790989,301.41279170801863,301.71252825000556,302.2124395830324,302.2124395830324,302.2124395830324,302.49848916602787,0,ccw,demo,001,2025-02-28_07h12.54.786,2d-motion-direction-discrimination,2024.2.4,None,2025-02-28 07h13.08.126198 -0500,
302.51191062503494,,,,,cw,40,14,20,0,2,lin,1,2,None,45,0,35,166,down,2,6,302.4990154580446,302.51191062503494,302.9990839160164,303.31281212501926,303.81278575002216,303.81278575002216,303.81278575002216,304.19623504101764,1,ccw,demo,001,2025-02-28_07h12.54.786,2d-motion-direction-discrimination,2024.2.4,None,2025-02-28 07h13.08.126198 -0500,
304.20153629098786,,,,,ccw,40,-14,0,-20,2,lin,2,1,None,45,1,35,167,down,2,-4,304.19662075000815,304.20153629098786,304.71340925002005,304.98360095801763,305.49662404099945,305.49662404099945,305.49662404099945,305.7128403750248,0,cw,demo,001,2025-02-28_07h12.54.786,2d-motion-direction-discrimination,2024.2.4,None,2025-02-28 07h13.08.126198 -0500,
305.7179528330453,,,,,ccw,40,-14,0,-20,2,lin,2,1,None,135,5,36,168,up,2,0,305.7132422910072,305.7179528330453,306.21480175002944,306.51255179103464,306.99733500002185,307.01178079104284,307.01178079104284,307.4651228750008,1,cw,demo,001,2025-02-28_07h12.54.786,2d-motion-direction-discrimination,2024.2.4,None,2025-02-28 07h13.08.126198 -0500,
307.47844312503,,,,,cw,40,14,20,0,2,lin,1,2,None,45,0,36,169,down,2,6,307.46551937499316,307.47844312503,307.96564541599946,308.28011875000084,308.7790245410288,308.7790245410288,308.7790245410288,309.0795791250421,1,ccw,demo,001,2025-02-28_07h12.54.786,2d-motion-direction-discrimination,2024.2.4,None,2025-02-28 07h13.08.126198 -0500,
309.0860052080243,,,,,ccw,40,-14,0,-20,2,lin,2,1,None,45,1,36,170,down,2,-4,309.08013850002317,309.0860052080243,309.5838625000324,309.8792235410074,310.3789715830353,310.3789715830353,310.3789715830353,310.61828154104296,0,cw,demo,001,2025-02-28_07h12.54.786,2d-motion-direction-discrimination,2024.2.4,None,2025-02-28 07h13.08.126198 -0500,
310.62855933303945,,,,,cw,40,14,20,0,2,lin,1,2,None,135,4,36,171,up,2,8,310.61896129103843,310.62855933303945,311.12932045804337,311.4185637910268,311.9302534580347,311.9302534580347,311.9302534580347,312.9290512500447,0,cw,demo,001,2025-02-28_07h12.54.786,2d-motion-direction-discrimination,2024.2.4,None,2025-02-28 07h13.08.126198 -0500,
312.9322421660181,,,,,cw,40,14,20,0,2,lin,1,2,None,135,4,37,172,up,2,10,312.92954662500415,312.9322421660181,313.43313175003277,313.7299485830008,314.2143936660141,314.2143936660141,314.2143936660141,314.4628691250109,1,ccw,demo,001,2025-02-28_07h12.54.786,2d-motion-direction-discrimination,2024.2.4,None,2025-02-28 07h13.08.126198 -0500,
314.4681707500131,,,,,ccw,40,-14,0,-20,2,lin,2,1,None,45,1,37,173,up,2,-2,314.4632916250266,314.4681707500131,314.97942320798757,315.2627490829909,315.76153970800806,315.76153970800806,315.76153970800806,315.9638454160304,0,cw,demo,001,2025-02-28_07h12.54.786,2d-motion-direction-discrimination,2024.2.4,None,2025-02-28 07h13.08.126198 -0500,
315.9786075000302,,,,,cw,40,14,20,0,2,lin,1,2,None,45,0,37,174,down,2,4,315.9642139580101,315.9786075000302,316.47936370800016,316.77818137500435,317.2800507910433,317.26354575000005,317.26354575000005,317.6292428750312,1,ccw,demo,001,2025-02-28_07h12.54.786,2d-motion-direction-discrimination,2024.2.4,None,2025-02-28 07h13.08.126198 -0500,
317.63274883304257,,,,,ccw,40,-14,0,-20,2,lin,2,1,None,135,5,37,175,down,2,-2,317.629734874994,317.63274883304257,318.13154125004075,318.4182874580147,318.9293078749906,318.9293078749906,318.9293078749906,319.37961520801764,0,cw,demo,001,2025-02-28_07h12.54.786,2d-motion-direction-discrimination,2024.2.4,None,2025-02-28 07h13.08.126198 -0500,
319.3849074160098,,,,,cw,40,14,20,0,2,lin,1,2,None,135,4,38,176,up,2,10,319.380079124996,319.3849074160098,319.88355079101166,320.1792892499943,320.67905741604045,320.67905741604045,320.67905741604045,321.01533133303747,1,ccw,demo,001,2025-02-28_07h12.54.786,2d-motion-direction-discrimination,2024.2.4,None,2025-02-28 07h13.08.126198 -0500,
321.02832670800854,,,,,ccw,40,-14,0,-20,2,lin,2,1,None,135,5,38,177,down,2,-2,321.0159033749951,321.02832670800854,321.51570737501606,321.81272645801073,322.3134064160404,322.32947391603375,322.32947391603375,322.5667588330107,1,ccw,demo,001,2025-02-28_07h12.54.786,2d-motion-direction-discrimination,2024.2.4,None,2025-02-28 07h13.08.126198 -0500,
322.57795954099856,,,,,cw,40,14,20,0,2,lin,1,2,None,45,0,38,178,down,2,4,322.5672563750413,322.57795954099856,323.06418629101245,323.3794429160189,323.87992479099194,323.87992479099194,323.87992479099194,324.69942758302204,1,ccw,demo,001,2025-02-28_07h12.54.786,2d-motion-direction-discrimination,2024.2.4,None,2025-02-28 07h13.08.126198 -0500,
324.70356450002873,,,,,ccw,40,-14,0,-20,2,lin,2,1,None,45,1,38,179,up,2,-2,324.7000494580134,324.70356450002873,325.2127017499879,325.5023734580027,326.0129219160299,326.0129219160299,326.0129219160299,326.281928832992,0,cw,demo,001,2025-02-28_07h12.54.786,2d-motion-direction-discrimination,2024.2.4,None,2025-02-28 07h13.08.126198 -0500,
326.2953252909938,,,,,ccw,40,-14,0,-20,2,lin,2,1,None,135,5,39,180,down,2,-4,326.28351158299483,326.2953252909938,326.79525016603293,327.0807052910095,327.5782747080084,327.58043058303883,327.58043058303883,328.03082833299413,0,cw,demo,001,2025-02-28_07h12.54.786,2d-motion-direction-discrimination,2024.2.4,None,2025-02-28 07h13.08.126198 -0500,
328.0452039579977,,,,,cw,40,14,20,0,2,lin,1,2,None,45,0,39,181,down,2,2,328.03144575003535,328.0452039579977,328.53232954099076,328.8457624579896,329.34572316601407,329.34572316601407,329.34572316601407,329.7650413750089,0,cw,demo,001,2025-02-28_07h12.54.786,2d-motion-direction-discrimination,2024.2.4,None,2025-02-28 07h13.08.126198 -0500,
329.7782997910399,,,,,ccw,40,-14,0,-20,2,lin,2,1,None,45,1,39,182,up,2,0,329.76548729103524,329.7782997910399,330.28007991600316,330.5795727079967,331.07832804101054,331.06169458304066,331.06169458304066,331.47913125000196,1,cw,demo,001,2025-02-28_07h12.54.786,2d-motion-direction-discrimination,2024.2.4,None,2025-02-28 07h13.08.126198 -0500,
331.48406079103006,,,,,cw,40,14,20,0,2,lin,1,2,None,135,4,39,183,down,2,8,331.4798002910102,331.48406079103006,331.98398095800076,332.2792655410012,332.7796507910243,332.7796507910243,332.7796507910243,333.7628954999964,0,cw,demo,001,2025-02-28_07h12.54.786,2d-motion-direction-discrimination,2024.2.4,None,2025-02-28 07h13.08.126198 -0500,
333.76804674998857,,,,,cw,40,14,20,0,2,lin,1,2,None,45,0,40,184,up,2,4,333.7633149159956,333.76804674998857,334.2639785830397,334.5627535000094,335.0627463750425,335.0627463750425,335.0627463750425,335.79908179101767,1,ccw,demo,001,2025-02-28_07h12.54.786,2d-motion-direction-discrimination,2024.2.4,None,2025-02-28 07h13.08.126198 -0500,
335.8118869159953,,,,,ccw,40,-14,0,-20,2,lin,2,1,None,135,5,40,185,down,2,-4,335.7996095410199,335.8118869159953,336.31231875001686,336.6125630000024,337.0973555830424,337.0973555830424,337.0973555830424,337.4514020830393,0,cw,demo,001,2025-02-28_07h12.54.786,2d-motion-direction-discrimination,2024.2.4,None,2025-02-28 07h13.08.126198 -0500,
337.4616894160281,,,,,ccw,40,-14,0,-20,2,lin,2,1,None,45,1,40,186,down,2,-2,337.45204800000647,337.4616894160281,337.96280974999536,338.2476848330116,338.7450801660307,338.7473410000093,338.7473410000093,339.7291630409891,1,ccw,demo,001,2025-02-28_07h12.54.786,2d-motion-direction-discrimination,2024.2.4,None,2025-02-28 07h13.08.126198 -0500,
339.7327290830435,,,,,cw,40,14,20,0,2,lin,1,2,None,135,4,40,187,up,2,10,339.7296261250158,339.7327290830435,340.24689145799493,340.52973579103127,341.02932533301646,341.02932533301646,341.02932533301646,341.6662037910428,1,ccw,demo,001,2025-02-28_07h12.54.786,2d-motion-direction-discrimination,2024.2.4,None,2025-02-28 07h13.08.126198 -0500,
