thisRow.t,notes,begin_experiment.started,text.started,begin_experiment.stopped,staircase.label,staircase.nReps,staircase.startVal,staircase.maxVal,staircase.minVal,staircase.stepSizes,staircase.stepType,staircase.nUp,staircase.nDown,staircase.nReversals,staircase.thisIndex,staircase.thisRepN,staircase.thisN,staircase.direction,staircase.stepSize,staircase.intensity,trial.started,dots.started,dots.stopped,dots_test.started,dots_test.stopped,key_resp.started,text_2.started,trial.stopped,staircase.response,response,participant,session,date,expName,psychopyVersion,frameRate,expStart,
,,0.007860999961849302,0.012001291965134442,1.250130000000354,,,,,,,,,,,,,,,,,,,,,,,,,,,258488,001,2025-02-27_07h06.21.954,2d-motion-direction-discrimination,2024.2.4,None,2025-02-27 07h06.33.777201 -0500,
1.4607029589824378,,,,,lo,6,-15,-15,-15,1,lin,2,1,0,3,1,0,start,1,-15,1.454735166975297,1.4607029589824378,1.9501789589994587,2.0469349999912083,2.536083916958887,2.546925124945119,2.546925124945119,3.1482792089809664,0,cw,258488,001,2025-02-27_07h06.21.954,2d-motion-direction-discrimination,2024.2.4,None,2025-02-27 07h06.33.777201 -0500,
3.176156583998818,,,,,ccw,60,-10,0,-15,"[2, 0.5]",lin,2,1,None,1,1,1,start,2,-10,3.148800791997928,3.176156583998818,3.6657466249889694,3.936630666954443,4.448313458997291,4.448313458997291,4.448313458997291,4.864821583963931,0,cw,258488,001,2025-02-27_07h06.21.954,2d-motion-direction-discrimination,2024.2.4,None,2025-02-27 07h06.33.777201 -0500,
4.879172874963842,,,,,cw,60,10,15,0,"[2, 0.5]",lin,1,2,None,0,1,2,start,2,10,4.865300666948315,4.879172874963842,5.365774541976862,5.664006666978821,6.151420499954838,6.1643872919958085,6.1643872919958085,6.581793708959594,1,ccw,258488,001,2025-02-27_07h06.21.954,2d-motion-direction-discrimination,2024.2.4,None,2025-02-27 07h06.33.777201 -0500,
6.588304499979131,,,,,hi,6,15,15,15,1,lin,1,2,0,2,1,3,start,1,15,6.5824302089749835,6.588304499979131,7.082588083983865,7.38130333396839,7.881079374987166,7.881079374987166,7.881079374987166,8.331713208986912,1,ccw,258488,001,2025-02-27_07h06.21.954,2d-motion-direction-discrimination,2024.2.4,None,2025-02-27 07h06.33.777201 -0500,
8.337821124994662,,,,,lo,6,-15,-15,-15,1,lin,2,1,0,3,2,4,up,1,-15,8.33236154197948,8.337821124994662,8.833351833978668,9.130325541947968,9.61673145898385,9.630298374977428,9.630298374977428,10.088109333999455,0,cw,258488,001,2025-02-27_07h06.21.954,2d-motion-direction-discrimination,2024.2.4,None,2025-02-27 07h06.33.777201 -0500,
10.096956833964214,,,,,hi,6,15,15,15,1,lin,1,2,0,2,2,5,down,1,15,10.088819208962377,10.096956833964214,10.598631916975137,10.898364166961983,11.39843712496804,11.39843712496804,11.39843712496804,11.798264874960296,1,ccw,258488,001,2025-02-27_07h06.21.954,2d-motion-direction-discrimination,2024.2.4,None,2025-02-27 07h06.33.777201 -0500,
11.804180874954909,,,,,ccw,60,-10,0,-15,"[2, 0.5]",lin,2,1,None,1,2,6,up,2,-8,11.798847124970052,11.804180874954909,12.299817208957393,12.597586208954453,13.097764833946712,13.097764833946712,13.097764833946712,13.415187499951571,0,cw,258488,001,2025-02-27_07h06.21.954,2d-motion-direction-discrimination,2024.2.4,None,2025-02-27 07h06.33.777201 -0500,
13.421375666977838,,,,,cw,60,10,15,0,"[2, 0.5]",lin,1,2,None,0,2,7,down,2,8,13.415750874963123,13.421375666977838,13.915462916949764,14.214745874982327,14.714464083954226,14.714464083954226,14.714464083954226,15.035128791991156,1,ccw,258488,001,2025-02-27_07h06.21.954,2d-motion-direction-discrimination,2024.2.4,None,2025-02-27 07h06.33.777201 -0500,
15.047015166957863,,,,,ccw,60,-10,0,-15,"[2, 0.5]",lin,2,1,None,1,3,8,up,2,-6,15.035690791963134,15.047015166957863,15.54700637498172,15.83601266698679,16.348333709000144,16.348333709000144,16.348333709000144,17.00169083394576,0,cw,258488,001,2025-02-27_07h06.21.954,2d-motion-direction-discrimination,2024.2.4,None,2025-02-27 07h06.33.777201 -0500,
17.01375433395151,,,,,cw,60,10,15,0,"[2, 0.5]",lin,1,2,None,0,3,9,down,2,6,17.00233816698892,17.01375433395151,17.499264833983034,17.814596083946526,18.299158083973452,18.299158083973452,18.299158083973452,18.631884791946504,1,ccw,258488,001,2025-02-27_07h06.21.954,2d-motion-direction-discrimination,2024.2.4,None,2025-02-27 07h06.33.777201 -0500,
18.637486333958805,,,,,lo,6,-15,-15,-15,1,lin,2,1,0,3,3,10,up,1,-15,18.63237891695462,18.637486333958805,19.132815083954483,19.430224291980267,19.91667345899623,19.930175708956085,19.930175708956085,20.285606874967925,0,cw,258488,001,2025-02-27_07h06.21.954,2d-motion-direction-discrimination,2024.2.4,None,2025-02-27 07h06.33.777201 -0500,
20.29713262495352,,,,,hi,6,15,15,15,1,lin,1,2,0,2,3,11,down,1,15,20.286313041986432,20.29713262495352,20.79826262500137,21.08331575000193,21.580359624989796,21.580359624989796,21.580359624989796,21.831693749991246,1,ccw,258488,001,2025-02-27_07h06.21.954,2d-motion-direction-discrimination,2024.2.4,None,2025-02-27 07h06.33.777201 -0500,
21.8379314999911,,,,,ccw,60,-10,0,-15,"[2, 0.5]",lin,2,1,None,1,4,12,up,2,-4,21.83227979199728,21.8379314999911,22.332448291999754,22.630786499998067,23.131440333963837,23.131440333963837,23.131440333963837,23.531609749945346,0,cw,258488,001,2025-02-27_07h06.21.954,2d-motion-direction-discrimination,2024.2.4,None,2025-02-27 07h06.33.777201 -0500,
23.537581749958917,,,,,hi,6,15,15,15,1,lin,1,2,0,2,4,13,down,1,15,23.53207937499974,23.537581749958917,24.04829541698564,24.330404249951243,24.81718912499491,24.830285624950193,24.830285624950193,25.28188187495107,1,ccw,258488,001,2025-02-27_07h06.21.954,2d-motion-direction-discrimination,2024.2.4,None,2025-02-27 07h06.33.777201 -0500,
25.288181208947208,,,,,cw,60,10,15,0,"[2, 0.5]",lin,1,2,None,0,4,14,down,2,4,25.28254016698338,25.288181208947208,25.797920749988407,26.08121699996991,26.581689208978787,26.581689208978787,26.581689208978787,26.998468333971687,1,ccw,258488,001,2025-02-27_07h06.21.954,2d-motion-direction-discrimination,2024.2.4,None,2025-02-27 07h06.33.777201 -0500,
27.004488624981605,,,,,lo,6,-15,-15,-15,1,lin,2,1,0,3,4,15,up,1,-15,26.99902916699648,27.004488624981605,27.501636208966374,27.796975916950032,28.287314416957088,28.296928041963838,28.296928041963838,28.649115874955896,0,cw,258488,001,2025-02-27_07h06.21.954,2d-motion-direction-discrimination,2024.2.4,None,2025-02-27 07h06.33.777201 -0500,
28.66386516694911,,,,,cw,60,10,15,0,"[2, 0.5]",lin,1,2,None,0,5,16,down,2,2,28.649620999989565,28.66386516694911,29.164766916946974,29.44696245895466,29.932508833997417,29.946645458985586,29.946645458985586,31.08873166696867,0,cw,258488,001,2025-02-27_07h06.21.954,2d-motion-direction-discrimination,2024.2.4,None,2025-02-27 07h06.33.777201 -0500,
31.09671574999811,,,,,lo,6,-15,-15,-15,1,lin,2,1,0,3,5,17,up,1,-15,31.089319499966223,31.09671574999811,31.584681209002156,31.897994541970547,32.38588004198391,32.38588004198391,32.38588004198391,32.67044891696423,0,cw,258488,001,2025-02-27_07h06.21.954,2d-motion-direction-discrimination,2024.2.4,None,2025-02-27 07h06.33.777201 -0500,
32.68029399996158,,,,,ccw,60,-10,0,-15,"[2, 0.5]",lin,2,1,None,1,5,18,up,2,-2,32.67118979198858,32.68029399996158,33.18112524994649,33.48192437499529,33.98031399998581,33.966558291984256,33.966558291984256,34.381676249962766,0,cw,258488,001,2025-02-27_07h06.21.954,2d-motion-direction-discrimination,2024.2.4,None,2025-02-27 07h06.33.777201 -0500,
34.38768849999178,,,,,hi,6,15,15,15,1,lin,1,2,0,2,5,19,down,1,15,34.382289749977645,34.38768849999178,34.897816749988124,35.181788124958985,35.68144766695332,35.68144766695332,35.68144766695332,36.04846549994545,1,ccw,258488,001,2025-02-27_07h06.21.954,2d-motion-direction-discrimination,2024.2.4,None,2025-02-27 07h06.33.777201 -0500,
36.05471870896872,,,,,hi,6,15,15,15,1,lin,1,2,0,2,6,20,down,1,15,36.04922358394833,36.05471870896872,36.551269833988044,36.84829795896076,37.3469449589611,37.3469449589611,37.3469449589611,37.69862366694724,1,ccw,258488,001,2025-02-27_07h06.21.954,2d-motion-direction-discrimination,2024.2.4,None,2025-02-27 07h06.33.777201 -0500,
37.70471970899962,,,,,cw,60,10,15,0,"[2, 0.5]",lin,1,2,None,0,6,21,up,0.5,2.5,37.699214458989445,37.70471970899962,38.214640916965436,38.49687454197556,38.98314379196381,38.9969795839861,38.9969795839861,39.26512583397562,1,ccw,258488,001,2025-02-27_07h06.21.954,2d-motion-direction-discrimination,2024.2.4,None,2025-02-27 07h06.33.777201 -0500,
39.270768208953086,,,,,ccw,60,-10,0,-15,"[2, 0.5]",lin,2,1,None,1,6,22,up,2,0,39.26576841698261,39.270768208953086,39.781724708969705,40.063572166953236,40.54920199996559,40.56369816698134,40.56369816698134,40.94918333395617,0,ccw,258488,001,2025-02-27_07h06.21.954,2d-motion-direction-discrimination,2024.2.4,None,2025-02-27 07h06.33.777201 -0500,
40.96374341699993,,,,,lo,6,-15,-15,-15,1,lin,2,1,0,3,6,23,up,1,-15,40.94971837499179,40.96374341699993,41.44901854195632,41.74695995898219,42.24752966698725,42.26416141696973,42.26416141696973,42.4650959589635,0,cw,258488,001,2025-02-27_07h06.21.954,2d-motion-direction-discrimination,2024.2.4,None,2025-02-27 07h06.33.777201 -0500,
42.47102737496607,,,,,lo,6,-15,-15,-15,1,lin,2,1,0,3,7,24,up,1,-15,42.465679791988805,42.47102737496607,42.96716745896265,43.26514449995011,43.763612999988254,43.763612999988254,43.763612999988254,44.01538704195991,0,cw,258488,001,2025-02-27_07h06.21.954,2d-motion-direction-discrimination,2024.2.4,None,2025-02-27 07h06.33.777201 -0500,
44.021217833971605,,,,,ccw,60,-10,0,-15,"[2, 0.5]",lin,2,1,None,1,7,25,up,2,0,44.016006291960366,44.021217833971605,44.51671945897397,44.81359712500125,45.31462029198883,45.333164208976086,45.333164208976086,47.36845579196233,0,ccw,258488,001,2025-02-27_07h06.21.954,2d-motion-direction-discrimination,2024.2.4,None,2025-02-27 07h06.33.777201 -0500,
47.38019133399939,,,,,hi,6,15,15,15,1,lin,1,2,0,2,7,26,down,1,15,47.36908404197311,47.38019133399939,47.867381541989744,48.18133170896908,48.68021866696654,48.666652208950836,48.666652208950836,49.00274129200261,1,ccw,258488,001,2025-02-27_07h06.21.954,2d-motion-direction-discrimination,2024.2.4,None,2025-02-27 07h06.33.777201 -0500,
49.013600749953184,,,,,cw,60,10,15,0,"[2, 0.5]",lin,1,2,None,0,7,27,up,0.5,2.5,49.00333849998424,49.013600749953184,49.499073083978146,49.81449266697746,50.29979745898163,50.29979745898163,50.29979745898163,50.534764916985296,1,ccw,258488,001,2025-02-27_07h06.21.954,2d-motion-direction-discrimination,2024.2.4,None,2025-02-27 07h06.33.777201 -0500,
50.54708666697843,,,,,cw,60,10,15,0,"[2, 0.5]",lin,1,2,None,0,8,28,down,0.5,2.0,50.53547399997478,50.54708666697843,51.04770541697508,51.3302691669669,51.82156249997206,51.83024816698162,51.83024816698162,52.0508554999833,0,cw,258488,001,2025-02-27_07h06.21.954,2d-motion-direction-discrimination,2024.2.4,None,2025-02-27 07h06.33.777201 -0500,
52.06391274998896,,,,,ccw,60,-10,0,-15,"[2, 0.5]",lin,2,1,None,1,8,29,up,2,0,52.051375458948314,52.06391274998896,52.55011974996887,52.85028324997984,53.346320333948825,53.346320333948825,53.346320333948825,54.38182849995792,1,cw,258488,001,2025-02-27_07h06.21.954,2d-motion-direction-discrimination,2024.2.4,None,2025-02-27 07h06.33.777201 -0500,
54.38802149996627,,,,,ccw,60,-10,0,-15,"[2, 0.5]",lin,2,1,None,1,9,30,down,0.5,-0.5,54.38259137497516,54.38802149996627,54.882350333966315,55.180100541969296,55.667258749948815,55.68027054198319,55.68027054198319,55.78183270897716,0,cw,258488,001,2025-02-27_07h06.21.954,2d-motion-direction-discrimination,2024.2.4,None,2025-02-27 07h06.33.777201 -0500,
55.78813145897584,,,,,cw,60,10,15,0,"[2, 0.5]",lin,1,2,None,0,9,31,up,0.5,2.5,55.7823800839833,55.78813145897584,56.28713274997426,56.58067366696196,57.06594324996695,57.08031824999489,57.08031824999489,57.41522245894885,0,cw,258488,001,2025-02-27_07h06.21.954,2d-motion-direction-discrimination,2024.2.4,None,2025-02-27 07h06.33.777201 -0500,
57.42119783395901,,,,,ccw,60,-10,0,-15,"[2, 0.5]",lin,2,1,None,1,10,32,down,0.5,-0.5,57.41588837496238,57.42119783395901,57.93172841699561,58.21363799995743,58.71447733399691,58.71447733399691,58.71447733399691,59.05131720897043,0,cw,258488,001,2025-02-27_07h06.21.954,2d-motion-direction-discrimination,2024.2.4,None,2025-02-27 07h06.33.777201 -0500,
59.06378491700161,,,,,cw,60,10,15,0,"[2, 0.5]",lin,1,2,None,0,10,33,up,0.5,3.0,59.05201099999249,59.06378491700161,59.54901199997403,59.853685416979715,60.34923295897897,60.34923295897897,60.34923295897897,60.599533333966974,1,ccw,258488,001,2025-02-27_07h06.21.954,2d-motion-direction-discrimination,2024.2.4,None,2025-02-27 07h06.33.777201 -0500,
60.61382683395641,,,,,cw,60,10,15,0,"[2, 0.5]",lin,1,2,None,0,11,34,up,0.5,3.0,60.60010208399035,60.61382683395641,61.11450920900097,61.396912666969,61.885985041968524,61.896859458996914,61.896859458996914,62.13480962498579,1,ccw,258488,001,2025-02-27_07h06.21.954,2d-motion-direction-discrimination,2024.2.4,None,2025-02-27 07h06.33.777201 -0500,
62.147072583960835,,,,,ccw,60,-10,0,-15,"[2, 0.5]",lin,2,1,None,1,11,35,up,0.5,0.0,62.13556324999081,62.147072583960835,62.63221491698641,62.93039483396569,63.43161195894936,63.44743199995719,63.44743199995719,64.21747529198183,1,cw,258488,001,2025-02-27_07h06.21.954,2d-motion-direction-discrimination,2024.2.4,None,2025-02-27 07h06.33.777201 -0500,
64.2302225419553,,,,,ccw,60,-10,0,-15,"[2, 0.5]",lin,2,1,None,1,12,36,down,0.5,-0.5,64.21803408395499,64.2302225419553,64.71666570898378,65.03134029195644,65.53042424999876,65.51361995894695,65.51361995894695,65.86785679199966,0,cw,258488,001,2025-02-27_07h06.21.954,2d-motion-direction-discrimination,2024.2.4,None,2025-02-27 07h06.33.777201 -0500,
65.88022020895733,,,,,cw,60,10,15,0,"[2, 0.5]",lin,1,2,None,0,12,37,down,0.5,2.5,65.86849008395802,65.88022020895733,66.36939199996414,66.68123224994633,67.16823658399517,67.16823658399517,67.16823658399517,67.8677937919856,0,cw,258488,001,2025-02-27_07h06.21.954,2d-motion-direction-discrimination,2024.2.4,None,2025-02-27 07h06.33.777201 -0500,
67.88044087495655,,,,,cw,60,10,15,0,"[2, 0.5]",lin,1,2,None,0,13,38,up,0.5,3.0,67.86872654198669,67.88044087495655,68.36596612498397,68.66622437495971,69.16379770898493,69.16379770898493,69.16379770898493,69.34848929196596,1,ccw,258488,001,2025-02-27_07h06.21.954,2d-motion-direction-discrimination,2024.2.4,None,2025-02-27 07h06.33.777201 -0500,
69.35412033397006,,,,,ccw,60,-10,0,-15,"[2, 0.5]",lin,2,1,None,1,13,39,down,0.5,-0.5,69.34911041695159,69.35412033397006,69.86428574996535,70.14733620896004,70.63240216695704,70.64699758397182,70.64699758397182,71.482673874998,0,cw,258488,001,2025-02-27_07h06.21.954,2d-motion-direction-discrimination,2024.2.4,None,2025-02-27 07h06.33.777201 -0500,
71.4971728749806,,,,,cw,60,10,15,0,"[2, 0.5]",lin,1,2,None,0,14,40,up,0.5,3.0,71.48350229195785,71.4971728749806,71.98219216696452,72.28022999997484,72.76714066695422,72.78034529194701,72.78034529194701,73.26476904196898,1,ccw,258488,001,2025-02-27_07h06.21.954,2d-motion-direction-discrimination,2024.2.4,None,2025-02-27 07h06.33.777201 -0500,
73.27039245900232,,,,,ccw,60,-10,0,-15,"[2, 0.5]",lin,2,1,None,1,14,41,up,0.5,0.0,73.26535395899555,73.27039245900232,73.78088995895814,74.06361845898209,74.56437633396126,74.56437633396126,74.56437633396126,74.98260629194556,1,cw,258488,001,2025-02-27_07h06.21.954,2d-motion-direction-discrimination,2024.2.4,None,2025-02-27 07h06.33.777201 -0500,
74.99701345898211,,,,,cw,60,10,15,0,"[2, 0.5]",lin,1,2,None,0,15,42,down,0.5,2.5,74.98315766698215,74.99701345898211,75.48254045896465,75.79711874999339,76.29828337498475,76.29828337498475,76.29828337498475,76.55074970895657,1,ccw,258488,001,2025-02-27_07h06.21.954,2d-motion-direction-discrimination,2024.2.4,None,2025-02-27 07h06.33.777201 -0500,
76.56365399999777,,,,,ccw,60,-10,0,-15,"[2, 0.5]",lin,2,1,None,1,15,43,down,0.5,-0.5,76.55132299999241,76.56365399999777,77.04919008398429,77.36445958400145,77.85122683399823,77.85122683399823,77.85122683399823,78.03208520897897,0,cw,258488,001,2025-02-27_07h06.21.954,2d-motion-direction-discrimination,2024.2.4,None,2025-02-27 07h06.33.777201 -0500,
78.03718883398687,,,,,ccw,60,-10,0,-15,"[2, 0.5]",lin,2,1,None,1,16,44,down,0.5,-0.5,78.03262445895234,78.03718883398687,78.5485480419593,78.83150349999778,79.32968670898117,79.32968670898117,79.32968670898117,79.55183504195884,0,cw,258488,001,2025-02-27_07h06.21.954,2d-motion-direction-discrimination,2024.2.4,None,2025-02-27 07h06.33.777201 -0500,
79.5638158340007,,,,,cw,60,10,15,0,"[2, 0.5]",lin,1,2,None,0,16,45,down,0.5,2.5,79.5524424999603,79.5638158340007,80.06478120898828,80.35267962497892,80.86479358398356,80.86479358398356,80.86479358398356,81.15197562496178,1,ccw,258488,001,2025-02-27_07h06.21.954,2d-motion-direction-discrimination,2024.2.4,None,2025-02-27 07h06.33.777201 -0500,
81.16369241697248,,,,,cw,60,10,15,0,"[2, 0.5]",lin,1,2,None,0,17,46,down,0.5,2.0,81.15263870899798,81.16369241697248,81.64903874997981,81.94741112500196,82.44782274996396,82.46464641694911,82.46464641694911,82.78381774999434,1,ccw,258488,001,2025-02-27_07h06.21.954,2d-motion-direction-discrimination,2024.2.4,None,2025-02-27 07h06.33.777201 -0500,
82.79690924996976,,,,,ccw,60,-10,0,-15,"[2, 0.5]",lin,2,1,None,1,17,47,up,0.5,0.0,82.78438195894705,82.79690924996976,83.28244470898062,83.58657295897137,84.09787158400286,84.09787158400286,84.09787158400286,84.48420466698008,1,cw,258488,001,2025-02-27_07h06.21.954,2d-motion-direction-discrimination,2024.2.4,None,2025-02-27 07h06.33.777201 -0500,
84.49720312497811,,,,,ccw,60,-10,0,-15,"[2, 0.5]",lin,2,1,None,1,18,48,down,0.5,-0.5,84.48484141699737,84.49720312497811,84.98223624995444,85.28044129197951,85.78113295894582,85.79743066697847,85.79743066697847,86.04852808394935,0,cw,258488,001,2025-02-27_07h06.21.954,2d-motion-direction-discrimination,2024.2.4,None,2025-02-27 07h06.33.777201 -0500,
86.05483724997612,,,,,cw,60,10,15,0,"[2, 0.5]",lin,1,2,None,0,18,49,down,0.5,2.0,86.0493132089614,86.05483724997612,86.54918683395954,86.84788916696562,87.33241520897718,87.34694049996324,87.34694049996324,87.78195295896148,1,ccw,258488,001,2025-02-27_07h06.21.954,2d-motion-direction-discrimination,2024.2.4,None,2025-02-27 07h06.33.777201 -0500,
87.78752054198412,,,,,cw,60,10,15,0,"[2, 0.5]",lin,1,2,None,0,19,50,down,0.5,1.5,87.78247816697694,87.78752054198412,88.28248899994651,88.58154008397833,89.08041629195213,89.08041629195213,89.08041629195213,89.68422570900293,1,ccw,258488,001,2025-02-27_07h06.21.954,2d-motion-direction-discrimination,2024.2.4,None,2025-02-27 07h06.33.777201 -0500,
89.6966056249803,,,,,ccw,60,-10,0,-15,"[2, 0.5]",lin,2,1,None,1,19,51,down,0.5,-0.5,89.68473374994937,89.6966056249803,90.19792079197941,90.4827333749854,90.98155804199632,90.9978129589581,90.9978129589581,94.4153705839999,0,cw,258488,001,2025-02-27_07h06.21.954,2d-motion-direction-discrimination,2024.2.4,None,2025-02-27 07h06.33.777201 -0500,
94.42095845896984,,,,,cw,60,10,15,0,"[2, 0.5]",lin,1,2,None,0,20,52,down,0.5,1.5,94.41600249998737,94.42095845896984,94.91733983397717,95.23127633397235,95.73178687499603,95.71469262498431,95.71469262498431,95.89856720896205,1,ccw,258488,001,2025-02-27_07h06.21.954,2d-motion-direction-discrimination,2024.2.4,None,2025-02-27 07h06.33.777201 -0500,
95.90460299997358,,,,,ccw,60,-10,0,-15,"[2, 0.5]",lin,2,1,None,1,20,53,up,0.5,0.0,95.8991731669521,95.90460299997358,96.39918345899787,96.69708741694922,97.18247879197588,97.19705233396962,97.19705233396962,97.38470095896628,0,ccw,258488,001,2025-02-27_07h06.21.954,2d-motion-direction-discrimination,2024.2.4,None,2025-02-27 07h06.33.777201 -0500,
97.39705549995415,,,,,ccw,60,-10,0,-15,"[2, 0.5]",lin,2,1,None,1,21,54,up,0.5,0.0,97.38525379198836,97.39705549995415,97.8975249590003,98.18084587500198,98.66680070897564,98.68262749997666,98.68262749997666,99.00039333396126,0,ccw,258488,001,2025-02-27_07h06.21.954,2d-motion-direction-discrimination,2024.2.4,None,2025-02-27 07h06.33.777201 -0500,
99.00618529197527,,,,,cw,60,10,15,0,"[2, 0.5]",lin,1,2,None,0,21,55,down,0.5,1.0,99.00092041696189,99.00618529197527,99.49891124997521,99.81463504198473,100.30138091696426,100.29707416699966,100.29707416699966,100.51919899997301,1,ccw,258488,001,2025-02-27_07h06.21.954,2d-motion-direction-discrimination,2024.2.4,None,2025-02-27 07h06.33.777201 -0500,
100.53033300000243,,,,,cw,60,10,15,0,"[2, 0.5]",lin,1,2,None,0,22,56,down,0.5,1.0,100.51978070900077,100.53033300000243,101.03203991695773,101.33210616698489,101.83033341699047,101.81994666694663,101.81994666694663,102.16694662498776,1,ccw,258488,001,2025-02-27_07h06.21.954,2d-motion-direction-discrimination,2024.2.4,None,2025-02-27 07h06.33.777201 -0500,
102.17325537494617,,,,,ccw,60,-10,0,-15,"[2, 0.5]",lin,2,1,None,1,22,57,up,0.5,0,102.16756249999162,102.17325537494617,102.68138458399335,102.98120683396701,103.46681708400138,103.46368091698969,103.46368091698969,104.83419549994869,1,cw,258488,001,2025-02-27_07h06.21.954,2d-motion-direction-discrimination,2024.2.4,None,2025-02-27 07h06.33.777201 -0500,
104.84704933397006,,,,,ccw,60,-10,0,-15,"[2, 0.5]",lin,2,1,None,1,23,58,down,0.5,-0.5,104.8348958339775,104.84704933397006,105.33235779195093,105.63266583398217,106.13028387498343,106.13028387498343,106.13028387498343,106.3512609169702,1,ccw,258488,001,2025-02-27_07h06.21.954,2d-motion-direction-discrimination,2024.2.4,None,2025-02-27 07h06.33.777201 -0500,
106.36389174999204,,,,,cw,60,10,15,0,"[2, 0.5]",lin,1,2,None,0,23,59,down,0.5,0.5,106.35204645898193,106.36389174999204,106.86477079195902,107.1508508749539,107.64939349994529,107.64939349994529,107.64939349994529,108.08181483397493,1,ccw,258488,001,2025-02-27_07h06.21.954,2d-motion-direction-discrimination,2024.2.4,None,2025-02-27 07h06.33.777201 -0500,
108.08777483395534,,,,,cw,60,10,15,0,"[2, 0.5]",lin,1,2,None,0,24,60,down,0.5,0.5,108.08239891700214,108.08777483395534,108.59813187498366,108.88090858398937,109.38143433397636,109.38143433397636,109.38143433397636,109.56491824996192,1,ccw,258488,001,2025-02-27_07h06.21.954,2d-motion-direction-discrimination,2024.2.4,None,2025-02-27 07h06.33.777201 -0500,
109.57063412497519,,,,,ccw,60,-10,0,-15,"[2, 0.5]",lin,2,1,None,1,24,61,down,0.5,-1.0,109.56542004196672,109.57063412497519,110.06526183395181,110.35325504199136,110.86448566697072,110.86448566697072,110.86448566697072,111.66651316697244,1,ccw,258488,001,2025-02-27_07h06.21.954,2d-motion-direction-discrimination,2024.2.4,None,2025-02-27 07h06.33.777201 -0500,
111.67301212495659,,,,,cw,60,10,15,0,"[2, 0.5]",lin,1,2,None,0,25,62,down,0.5,0.0,111.6672463339637,111.67301212495659,112.16602449998027,112.48140925000189,112.98185204196488,112.98185204196488,112.98185204196488,113.43492033396615,1,cw,258488,001,2025-02-27_07h06.21.954,2d-motion-direction-discrimination,2024.2.4,None,2025-02-27 07h06.33.777201 -0500,
113.44702970900107,,,,,ccw,60,-10,0,-15,"[2, 0.5]",lin,2,1,None,1,25,63,down,0.5,-1.5,113.4355326249497,113.44702970900107,113.93264654197264,114.22983029199531,114.71639591699932,114.73242474999279,114.73242474999279,115.08206058398355,0,cw,258488,001,2025-02-27_07h06.21.954,2d-motion-direction-discrimination,2024.2.4,None,2025-02-27 07h06.33.777201 -0500,
115.08792741695652,,,,,cw,60,10,15,0,"[2, 0.5]",lin,1,2,None,0,26,64,down,0.5,0.0,115.0826206249767,115.08792741695652,115.58346570900176,115.88035287498496,116.38132904196391,116.38132904196391,116.38132904196391,116.88192304194672,1,cw,258488,001,2025-02-27_07h06.21.954,2d-motion-direction-discrimination,2024.2.4,None,2025-02-27 07h06.33.777201 -0500,
116.88812708394835,,,,,ccw,60,-10,0,-15,"[2, 0.5]",lin,2,1,None,1,26,65,down,0.5,-1.5,116.88252108398592,116.88812708394835,117.38232520897873,117.68148008396383,118.16624462499749,118.18038599996362,118.18038599996362,118.56500037497608,0,cw,258488,001,2025-02-27_07h06.21.954,2d-motion-direction-discrimination,2024.2.4,None,2025-02-27 07h06.33.777201 -0500,
118.57046704198001,,,,,cw,60,10,15,0,"[2, 0.5]",lin,1,2,None,0,27,66,down,0.5,0,118.56559666700196,118.57046704198001,119.06552562495926,119.36485924996668,119.86457254196284,119.86457254196284,119.86457254196284,120.10085245897062,1,cw,258488,001,2025-02-27_07h06.21.954,2d-motion-direction-discrimination,2024.2.4,None,2025-02-27 07h06.33.777201 -0500,
120.11377816699678,,,,,ccw,60,-10,0,-15,"[2, 0.5]",lin,2,1,None,1,27,67,up,0.5,-1.0,120.10134866699809,120.11377816699678,120.61492008395726,120.9143214999931,121.40033854194917,121.40033854194917,121.40033854194917,121.64850041695172,0,cw,258488,001,2025-02-27_07h06.21.954,2d-motion-direction-discrimination,2024.2.4,None,2025-02-27 07h06.33.777201 -0500,
121.65506512497086,,,,,cw,60,10,15,0,"[2, 0.5]",lin,1,2,None,0,28,68,down,0.5,0,121.6492157089524,121.65506512497086,122.15265449997969,122.44704733398976,122.93550729198614,122.94703637500061,122.94703637500061,123.24926316697383,0,ccw,258488,001,2025-02-27_07h06.21.954,2d-motion-direction-discrimination,2024.2.4,None,2025-02-27 07h06.33.777201 -0500,
123.25549058394972,,,,,ccw,60,-10,0,-15,"[2, 0.5]",lin,2,1,None,1,28,69,up,0.5,-1.0,123.24980091699399,123.25549058394972,123.76519662496867,124.04704074998153,124.54847670899471,124.56425608397694,124.56425608397694,124.78274108399637,0,cw,258488,001,2025-02-27_07h06.21.954,2d-motion-direction-discrimination,2024.2.4,None,2025-02-27 07h06.33.777201 -0500,
124.79724029195495,,,,,ccw,60,-10,0,-15,"[2, 0.5]",lin,2,1,None,1,29,70,up,0.5,-0.5,124.78338908398291,124.79724029195495,125.2822916249861,125.58033308398444,126.08117612497881,126.09802833397407,126.09802833397407,126.40587420895463,0,cw,258488,001,2025-02-27_07h06.21.954,2d-motion-direction-discrimination,2024.2.4,None,2025-02-27 07h06.33.777201 -0500,
126.4136477499851,,,,,cw,60,10,15,0,"[2, 0.5]",lin,1,2,None,0,29,71,up,0.5,0.5,126.40648804197554,126.4136477499851,126.89918304199819,127.21438970899908,127.71450587495929,127.71450587495929,127.71450587495929,128.1487417499884,0,cw,258488,001,2025-02-27_07h06.21.954,2d-motion-direction-discrimination,2024.2.4,None,2025-02-27 07h06.33.777201 -0500,
128.15491250000196,,,,,cw,60,10,15,0,"[2, 0.5]",lin,1,2,None,0,30,72,up,0.5,1.0,128.14940858399495,128.15491250000196,128.64938087499468,128.94745991699165,129.44806383398827,129.46510158397723,129.46510158397723,129.86525666696252,0,cw,258488,001,2025-02-27_07h06.21.954,2d-motion-direction-discrimination,2024.2.4,None,2025-02-27 07h06.33.777201 -0500,
129.870925833995,,,,,ccw,60,-10,0,-15,"[2, 0.5]",lin,2,1,None,1,30,73,up,0.5,-0.5,129.865774624981,129.870925833995,130.38185133395018,130.66459795896662,131.16489808395272,131.16489808395272,131.16489808395272,131.96654345898423,0,cw,258488,001,2025-02-27_07h06.21.954,2d-motion-direction-discrimination,2024.2.4,None,2025-02-27 07h06.33.777201 -0500,
131.98053149995394,,,,,cw,60,10,15,0,"[2, 0.5]",lin,1,2,None,0,31,74,up,0.5,1.5,131.96724579198053,131.98053149995394,132.46603295899695,132.76379637495847,133.25018737500068,133.26373099995544,133.26373099995544,133.60159595898585,1,ccw,258488,001,2025-02-27_07h06.21.954,2d-motion-direction-discrimination,2024.2.4,None,2025-02-27 07h06.33.777201 -0500,
133.61367129196879,,,,,ccw,60,-10,0,-15,"[2, 0.5]",lin,2,1,None,1,31,75,up,0.5,0.0,133.60211624996737,133.61367129196879,134.1145665840013,134.41427320899675,134.8993267499609,134.8993267499609,134.8993267499609,135.51616491697496,0,ccw,258488,001,2025-02-27_07h06.21.954,2d-motion-direction-discrimination,2024.2.4,None,2025-02-27 07h06.33.777201 -0500,
135.52208887494635,,,,,ccw,60,-10,0,-15,"[2, 0.5]",lin,2,1,None,1,32,76,up,0.5,0.0,135.51676587498514,135.52208887494635,136.01786020898726,136.33192741696257,136.83038662496256,136.81361770897638,136.81361770897638,137.4678757090005,1,cw,258488,001,2025-02-27_07h06.21.954,2d-motion-direction-discrimination,2024.2.4,None,2025-02-27 07h06.33.777201 -0500,
137.47398020897526,,,,,cw,60,10,15,0,"[2, 0.5]",lin,1,2,None,0,32,77,up,0.5,1.5,137.46843166695908,137.47398020897526,137.96581554197473,138.26491266698577,138.7638249999727,138.7638249999727,138.7638249999727,143.01655008399393,0,cw,258488,001,2025-02-27_07h06.21.954,2d-motion-direction-discrimination,2024.2.4,None,2025-02-27 07h06.33.777201 -0500,
143.03059229196515,,,,,ccw,60,-10,0,-15,"[2, 0.5]",lin,2,1,None,1,33,78,down,0.5,-0.5,143.01732783397892,143.03059229196515,143.51688679197105,143.83172262494918,144.3303799169953,144.31377620896092,144.31377620896092,145.2151424170006,0,cw,258488,001,2025-02-27_07h06.21.954,2d-motion-direction-discrimination,2024.2.4,None,2025-02-27 07h06.33.777201 -0500,
145.22091699996963,,,,,cw,60,10,15,0,"[2, 0.5]",lin,1,2,None,0,33,79,up,0.5,2.0,145.2156478749821,145.22091699996963,145.73188754200237,146.014836791961,146.51377749996027,146.51377749996027,146.51377749996027,146.7988801249885,1,ccw,258488,001,2025-02-27_07h06.21.954,2d-motion-direction-discrimination,2024.2.4,None,2025-02-27 07h06.33.777201 -0500,
146.80531687499024,,,,,cw,60,10,15,0,"[2, 0.5]",lin,1,2,None,0,34,80,up,0.5,2.0,146.79959645896452,146.80531687499024,147.3132194999489,147.59702633396955,148.09770879196003,148.09770879196003,148.09770879196003,149.21777516696602,1,ccw,258488,001,2025-02-27_07h06.21.954,2d-motion-direction-discrimination,2024.2.4,None,2025-02-27 07h06.33.777201 -0500,
149.2304106669617,,,,,ccw,60,-10,0,-15,"[2, 0.5]",lin,2,1,None,1,34,81,down,0.5,-0.5,149.21881820895942,149.2304106669617,149.71906058397144,150.03138241695706,150.5313094999874,150.5313094999874,150.5313094999874,150.90196383395232,0,cw,258488,001,2025-02-27_07h06.21.954,2d-motion-direction-discrimination,2024.2.4,None,2025-02-27 07h06.33.777201 -0500,
150.913652541989,,,,,ccw,60,-10,0,-15,"[2, 0.5]",lin,2,1,None,1,35,82,up,0.5,0.0,150.90263858396793,150.913652541989,151.41471720900154,151.71492366696475,152.2136662089615,152.1996702089673,152.1996702089673,152.56589320895728,1,cw,258488,001,2025-02-27_07h06.21.954,2d-motion-direction-discrimination,2024.2.4,None,2025-02-27 07h06.33.777201 -0500,
152.58020870899782,,,,,cw,60,10,15,0,"[2, 0.5]",lin,1,2,None,0,35,83,down,0.5,1.5,152.56655020895414,152.58020870899782,153.0659510839614,153.36369754199404,153.84895770897856,153.86364999995567,153.86364999995567,154.2817428749986,0,cw,258488,001,2025-02-27_07h06.21.954,2d-motion-direction-discrimination,2024.2.4,None,2025-02-27 07h06.33.777201 -0500,
154.28834379196633,,,,,cw,60,10,15,0,"[2, 0.5]",lin,1,2,None,0,36,84,up,0.5,2.0,154.28229191695573,154.28834379196633,154.79837712500012,155.08134574996075,155.5809069169918,155.5809069169918,155.5809069169918,156.2323974169558,1,ccw,258488,001,2025-02-27_07h06.21.954,2d-motion-direction-discrimination,2024.2.4,None,2025-02-27 07h06.33.777201 -0500,
156.23843687499175,,,,,ccw,60,-10,0,-15,"[2, 0.5]",lin,2,1,None,1,36,85,down,0.5,-0.5,156.23308479198022,156.23843687499175,156.73283554194495,157.03134374995716,157.53120179194957,157.53120179194957,157.53120179194957,157.76759662496625,0,cw,258488,001,2025-02-27_07h06.21.954,2d-motion-direction-discrimination,2024.2.4,None,2025-02-27 07h06.33.777201 -0500,
157.78034291695803,,,,,ccw,60,-10,0,-15,"[2, 0.5]",lin,2,1,None,1,37,86,down,0.5,-0.5,157.76809241698356,157.78034291695803,158.2658989589545,158.57065074995626,159.06594829197275,159.06594829197275,159.06594829197275,160.19965345895616,1,ccw,258488,001,2025-02-27_07h06.21.954,2d-motion-direction-discrimination,2024.2.4,None,2025-02-27 07h06.33.777201 -0500,
160.20585433399538,,,,,cw,60,10,15,0,"[2, 0.5]",lin,1,2,None,0,37,87,up,0.5,2.0,160.20032866694964,160.20585433399538,160.71442183398176,160.99711199995363,161.48300724994624,161.49700179195497,161.49700179195497,161.85099137498764,0,cw,258488,001,2025-02-27_07h06.21.954,2d-motion-direction-discrimination,2024.2.4,None,2025-02-27 07h06.33.777201 -0500,
161.85777674999554,,,,,ccw,60,-10,0,-15,"[2, 0.5]",lin,2,1,None,1,38,88,down,0.5,-1.0,161.851969041978,161.85777674999554,162.34934079198865,162.664136458945,163.16440895898268,163.16440895898268,163.16440895898268,164.04708158399444,0,cw,258488,001,2025-02-27_07h06.21.954,2d-motion-direction-discrimination,2024.2.4,None,2025-02-27 07h06.33.777201 -0500,
164.05021370894974,,,,,cw,60,10,15,0,"[2, 0.5]",lin,1,2,None,0,38,89,up,0.5,2.5,164.04754570894875,164.05021370894974,164.5649573339615,164.8472661669948,165.3471699169604,165.3471699169604,165.3471699169604,165.78400249994593,1,ccw,258488,001,2025-02-27_07h06.21.954,2d-motion-direction-discrimination,2024.2.4,None,2025-02-27 07h06.33.777201 -0500,
165.79715174995363,,,,,ccw,60,-10,0,-15,"[2, 0.5]",lin,2,1,None,1,39,90,down,0.5,-1.0,165.7845801669755,165.79715174995363,166.28233649994945,166.58331099996576,167.08049787499476,167.08049787499476,167.08049787499476,167.53242116695037,0,cw,258488,001,2025-02-27_07h06.21.954,2d-motion-direction-discrimination,2024.2.4,None,2025-02-27 07h06.33.777201 -0500,
167.5379473749781,,,,,cw,60,10,15,0,"[2, 0.5]",lin,1,2,None,0,39,91,up,0.5,2.5,167.5329365839716,167.5379473749781,168.04782170895487,168.33044049999444,168.8177779589896,168.83166816696757,168.83166816696757,169.21648620895576,1,ccw,258488,001,2025-02-27_07h06.21.954,2d-motion-direction-discrimination,2024.2.4,None,2025-02-27 07h06.33.777201 -0500,
169.23051479196874,,,,,cw,60,10,15,0,"[2, 0.5]",lin,1,2,None,0,40,92,down,0.5,2.0,169.21715612499975,169.23051479196874,169.73105487495195,170.01373649999732,170.51412199996412,170.51958508399548,170.51958508399548,170.81587145896628,1,ccw,258488,001,2025-02-27_07h06.21.954,2d-motion-direction-discrimination,2024.2.4,None,2025-02-27 07h06.33.777201 -0500,
170.83057320897933,,,,,ccw,60,-10,0,-15,"[2, 0.5]",lin,2,1,None,1,40,93,up,0.5,-0.5,170.81659137498355,170.83057320897933,171.33106924995081,171.61480087495875,172.1143392919912,172.1143392919912,172.1143392919912,174.4014815419796,0,cw,258488,001,2025-02-27_07h06.21.954,2d-motion-direction-discrimination,2024.2.4,None,2025-02-27 07h06.33.777201 -0500,
174.41392304195324,,,,,ccw,60,-10,0,-15,"[2, 0.5]",lin,2,1,None,1,41,94,up,0.5,-0.5,174.40216449997388,174.41392304195324,174.91439633397385,175.21428833395476,175.69972166698426,175.69972166698426,175.69972166698426,176.1334236249677,0,cw,258488,001,2025-02-27_07h06.21.954,2d-motion-direction-discrimination,2024.2.4,None,2025-02-27 07h06.33.777201 -0500,
176.13918733398896,,,,,cw,60,10,15,0,"[2, 0.5]",lin,1,2,None,0,41,95,down,0.5,2.0,176.13398354197852,176.13918733398896,176.6486894589616,176.93046241695993,177.41621724999277,177.4303961249534,177.4303961249534,178.78174787497846,0,cw,258488,001,2025-02-27_07h06.21.954,2d-motion-direction-discrimination,2024.2.4,None,2025-02-27 07h06.33.777201 -0500,
178.78786691697314,,,,,cw,60,10,15,0,"[2, 0.5]",lin,1,2,None,0,42,96,up,0.5,2.5,178.78237012500176,178.78786691697314,179.28229641699,179.5803146669641,180.06577616697177,180.08035887498409,180.08035887498409,180.31643054197775,1,ccw,258488,001,2025-02-27_07h06.21.954,2d-motion-direction-discrimination,2024.2.4,None,2025-02-27 07h06.33.777201 -0500,
180.33058433397673,,,,,ccw,60,-10,0,-15,"[2, 0.5]",lin,2,1,None,1,42,97,up,0.5,0.0,180.31705304200295,180.33058433397673,180.83170441695256,181.11375037499238,181.61428774998058,181.61976279196097,181.61976279196097,181.93191791698337,0,ccw,258488,001,2025-02-27_07h06.21.954,2d-motion-direction-discrimination,2024.2.4,None,2025-02-27 07h06.33.777201 -0500,
181.93811062496388,,,,,cw,60,10,15,0,"[2, 0.5]",lin,1,2,None,0,43,98,up,0.5,2.5,181.93263929197565,181.93811062496388,182.44806162494933,182.73110629199073,183.21661129198037,183.2303657499724,183.2303657499724,183.46511033398565,1,ccw,258488,001,2025-02-27_07h06.21.954,2d-motion-direction-discrimination,2024.2.4,None,2025-02-27 07h06.33.777201 -0500,
183.47110608394723,,,,,ccw,60,-10,0,-15,"[2, 0.5]",lin,2,1,None,1,43,99,up,0.5,0.0,183.46564274997218,183.47110608394723,183.9691455839784,184.26473974995315,184.76366962498287,184.76366962498287,184.76366962498287,185.1838996669976,1,cw,258488,001,2025-02-27_07h06.21.954,2d-motion-direction-discrimination,2024.2.4,None,2025-02-27 07h06.33.777201 -0500,
185.19707874994492,,,,,ccw,60,-10,0,-15,"[2, 0.5]",lin,2,1,None,1,44,100,down,0.5,-0.5,185.18436620896682,185.19707874994492,185.6825912919594,185.98083099996438,186.48150274995714,186.49757733399747,186.49757733399747,186.78137591696577,0,cw,258488,001,2025-02-27_07h06.21.954,2d-motion-direction-discrimination,2024.2.4,None,2025-02-27 07h06.33.777201 -0500,
186.78653683396988,,,,,cw,60,10,15,0,"[2, 0.5]",lin,1,2,None,0,44,101,down,0.5,2.0,186.78180758398958,186.78653683396988,187.29750366695225,187.5703463339596,188.08045899996068,188.08045899996068,188.08045899996068,188.36520954198204,1,ccw,258488,001,2025-02-27_07h06.21.954,2d-motion-direction-discrimination,2024.2.4,None,2025-02-27 07h06.33.777201 -0500,
188.37132604198996,,,,,cw,60,10,15,0,"[2, 0.5]",lin,1,2,None,0,45,102,down,0.5,2.0,188.3657729169936,188.37132604198996,188.88100199995097,189.16819529194618,189.66377304197522,189.66377304197522,189.66377304197522,190.04857962497044,1,ccw,258488,001,2025-02-27_07h06.21.954,2d-motion-direction-discrimination,2024.2.4,None,2025-02-27 07h06.33.777201 -0500,
190.0547610419453,,,,,ccw,60,-10,0,-15,"[2, 0.5]",lin,2,1,None,1,45,103,down,0.5,-0.5,190.04926716699265,190.0547610419453,190.55081299995072,190.84706754196668,191.33480920898728,191.34836516698124,191.34836516698124,191.79856562498026,0,cw,258488,001,2025-02-27_07h06.21.954,2d-motion-direction-discrimination,2024.2.4,None,2025-02-27 07h06.33.777201 -0500,
191.8047065839637,,,,,ccw,60,-10,0,-15,"[2, 0.5]",lin,2,1,None,1,46,104,up,0.5,0.0,191.799338666955,191.8047065839637,192.31504124996718,192.59769587498158,193.08261949999724,193.0971391669591,193.0971391669591,193.53185712499544,1,cw,258488,001,2025-02-27_07h06.21.954,2d-motion-direction-discrimination,2024.2.4,None,2025-02-27 07h06.33.777201 -0500,
193.53796437499113,,,,,cw,60,10,15,0,"[2, 0.5]",lin,1,2,None,0,46,105,down,0.5,1.5,193.5324662499479,193.53796437499113,194.03463545895647,194.33147241699044,194.83154445898253,194.83154445898253,194.83154445898253,195.38068174995715,0,cw,258488,001,2025-02-27_07h06.21.954,2d-motion-direction-discrimination,2024.2.4,None,2025-02-27 07h06.33.777201 -0500,
195.3839907089714,,,,,cw,60,10,15,0,"[2, 0.5]",lin,1,2,None,0,47,106,up,0.5,2.0,195.38101941696368,195.3839907089714,195.8977254589554,196.16692208399763,196.66368258395232,196.66595158400014,196.66595158400014,196.9321490000002,1,ccw,258488,001,2025-02-27_07h06.21.954,2d-motion-direction-discrimination,2024.2.4,None,2025-02-27 07h06.33.777201 -0500,
196.93792291695718,,,,,ccw,60,-10,0,-15,"[2, 0.5]",lin,2,1,None,1,47,107,down,0.5,-0.5,196.9326737090014,196.93792291695718,197.43031733395765,197.74825741699897,198.24703029199736,198.2304297919618,198.2304297919618,198.94790137495147,0,cw,258488,001,2025-02-27_07h06.21.954,2d-motion-direction-discrimination,2024.2.4,None,2025-02-27 07h06.33.777201 -0500,
198.9538108749548,,,,,cw,60,10,15,0,"[2, 0.5]",lin,1,2,None,0,48,108,up,0.5,2.0,198.94863095897017,198.9538108749548,199.46483441698365,199.7329935839516,200.2304102089838,200.23346404195763,200.23346404195763,200.63181070896098,1,ccw,258488,001,2025-02-27_07h06.21.954,2d-motion-direction-discrimination,2024.2.4,None,2025-02-27 07h06.33.777201 -0500,
200.63746945897583,,,,,ccw,60,-10,0,-15,"[2, 0.5]",lin,2,1,None,1,48,109,down,0.5,-0.5,200.63236562500242,200.63746945897583,201.14789062499767,201.43068454199238,201.91592891694745,201.93041945894947,201.93041945894947,202.35002495895606,0,cw,258488,001,2025-02-27_07h06.21.954,2d-motion-direction-discrimination,2024.2.4,None,2025-02-27 07h06.33.777201 -0500,
202.36396095895907,,,,,cw,60,10,15,0,"[2, 0.5]",lin,1,2,None,0,49,110,down,0.5,1.5,202.35062595899217,202.36396095895907,202.84908637497574,203.16467220894992,203.6499357499997,203.64709904196206,203.64709904196206,203.9987332089804,0,cw,258488,001,2025-02-27_07h06.21.954,2d-motion-direction-discrimination,2024.2.4,None,2025-02-27 07h06.33.777201 -0500,
204.0044206669554,,,,,ccw,60,-10,0,-15,"[2, 0.5]",lin,2,1,None,1,49,111,up,0.5,0.0,203.99925633397652,204.0044206669554,204.49934104195563,204.79841566696996,205.2971322919475,205.2971322919475,205.2971322919475,205.8820211669663,1,cw,258488,001,2025-02-27_07h06.21.954,2d-motion-direction-discrimination,2024.2.4,None,2025-02-27 07h06.33.777201 -0500,
205.88814649998676,,,,,ccw,60,-10,0,-15,"[2, 0.5]",lin,2,1,None,1,50,112,down,0.5,-0.5,205.88276841695188,205.88814649998676,206.3802880839794,206.6814507090021,207.1806035839836,207.1806035839836,207.1806035839836,207.66786004195455,0,cw,258488,001,2025-02-27_07h06.21.954,2d-motion-direction-discrimination,2024.2.4,None,2025-02-27 07h06.33.777201 -0500,
207.68051112495596,,,,,cw,60,10,15,0,"[2, 0.5]",lin,1,2,None,0,50,113,up,0.5,2.0,207.66848270897754,207.68051112495596,208.18132583395345,208.4817028339603,208.9814583749976,208.9814583749976,208.9814583749976,209.63185683399206,1,ccw,258488,001,2025-02-27_07h06.21.954,2d-motion-direction-discrimination,2024.2.4,None,2025-02-27 07h06.33.777201 -0500,
209.63779862498632,,,,,ccw,60,-10,0,-15,"[2, 0.5]",lin,2,1,None,1,51,114,down,0.5,-0.5,209.63254679198144,209.63779862498632,210.1325488750008,210.4320432919776,210.93046070897253,210.93046070897253,210.93046070897253,211.23482537496602,0,cw,258488,001,2025-02-27_07h06.21.954,2d-motion-direction-discrimination,2024.2.4,None,2025-02-27 07h06.33.777201 -0500,
211.24726874998305,,,,,cw,60,10,15,0,"[2, 0.5]",lin,1,2,None,0,51,115,up,0.5,2.0,211.23545229196316,211.24726874998305,211.732505958993,212.0332007499528,212.5304664169671,212.5304664169671,212.5304664169671,212.68217174999882,1,ccw,258488,001,2025-02-27_07h06.21.954,2d-motion-direction-discrimination,2024.2.4,None,2025-02-27 07h06.33.777201 -0500,
212.68836137495236,,,,,ccw,60,-10,0,-15,"[2, 0.5]",lin,2,1,None,1,52,116,up,0.5,0.0,212.68291883397615,212.68836137495236,213.18470616696868,213.48738308396423,213.99840795894852,213.9818702089833,213.9818702089833,214.36500379198696,1,cw,258488,001,2025-02-27_07h06.21.954,2d-motion-direction-discrimination,2024.2.4,None,2025-02-27 07h06.33.777201 -0500,
214.3711254169466,,,,,cw,60,10,15,0,"[2, 0.5]",lin,1,2,None,0,52,117,down,0.5,1.5,214.36556958395522,214.3711254169466,214.8659509999561,215.15368020895403,215.64897137496155,215.66366929200012,215.66366929200012,218.91538129199762,0,cw,258488,001,2025-02-27_07h06.21.954,2d-motion-direction-discrimination,2024.2.4,None,2025-02-27 07h06.33.777201 -0500,
218.9216140419594,,,,,ccw,60,-10,0,-15,"[2, 0.5]",lin,2,1,None,1,53,118,down,0.5,-0.5,218.91603874997236,218.9216140419594,219.41570866695838,219.73097720899386,220.21750170894666,220.21379937499296,220.21379937499296,221.21499320899602,1,ccw,258488,001,2025-02-27_07h06.21.954,2d-motion-direction-discrimination,2024.2.4,None,2025-02-27 07h06.33.777201 -0500,
221.22076349996496,,,,,cw,60,10,15,0,"[2, 0.5]",lin,1,2,None,0,53,119,up,0.5,2.0,221.2155259999563,221.22076349996496,221.7314702500007,222.0032239589491,222.5152147919871,222.5152147919871,222.5152147919871,223.1811262089759,1,ccw,258488,001,2025-02-27_07h06.21.954,2d-motion-direction-discrimination,2024.2.4,None,2025-02-27 07h06.33.777201 -0500,
223.18480733397882,,,,,cw,60,10,15,0,"[2, 0.5]",lin,1,2,None,0,54,120,up,0.5,2.0,223.1816877919482,223.18480733397882,223.69837337499484,223.9815132090007,224.48045624996303,224.46651916694827,224.46651916694827,225.03181149996817,0,cw,258488,001,2025-02-27_07h06.21.954,2d-motion-direction-discrimination,2024.2.4,None,2025-02-27 07h06.33.777201 -0500,
225.0373229169636,,,,,ccw,60,-10,0,-15,"[2, 0.5]",lin,2,1,None,1,54,121,down,0.5,-1.0,225.0323191669886,225.0373229169636,225.53308608394582,225.82040645898087,226.33147774997633,226.33147774997633,226.33147774997633,226.69845079199877,0,cw,258488,001,2025-02-27_07h06.21.954,2d-motion-direction-discrimination,2024.2.4,None,2025-02-27 07h06.33.777201 -0500,
226.70399599999655,,,,,cw,60,10,15,0,"[2, 0.5]",lin,1,2,None,0,55,122,up,0.5,2.5,226.69893137499457,226.70399599999655,227.21447229199111,227.4978212499991,227.983238374989,227.99715358397225,227.99715358397225,228.6508812919492,1,ccw,258488,001,2025-02-27_07h06.21.954,2d-motion-direction-discrimination,2024.2.4,None,2025-02-27 07h06.33.777201 -0500,
228.6636795839877,,,,,ccw,60,-10,0,-15,"[2, 0.5]",lin,2,1,None,1,55,123,down,0.5,-1.0,228.65148341696477,228.6636795839877,229.14942316699307,229.46526862494648,229.9637191669899,229.9509467089665,229.9509467089665,230.43213912495412,0,cw,258488,001,2025-02-27_07h06.21.954,2d-motion-direction-discrimination,2024.2.4,None,2025-02-27 07h06.33.777201 -0500,
230.43819837499177,,,,,ccw,60,-10,0,-15,"[2, 0.5]",lin,2,1,None,1,56,124,up,0.5,-0.5,230.43295299995225,230.43819837499177,230.93250670895213,231.2317574589979,231.7304060839815,231.7304060839815,231.7304060839815,231.91876424994553,0,cw,258488,001,2025-02-27_07h06.21.954,2d-motion-direction-discrimination,2024.2.4,None,2025-02-27 07h06.33.777201 -0500,
231.930430666951,,,,,cw,60,10,15,0,"[2, 0.5]",lin,1,2,None,0,56,125,up,0.5,2.5,231.91924845898757,231.930430666951,232.4172415419598,232.71627608395647,233.23142454196932,233.23142454196932,233.23142454196932,233.60131366696442,0,cw,258488,001,2025-02-27_07h06.21.954,2d-motion-direction-discrimination,2024.2.4,None,2025-02-27 07h06.33.777201 -0500,
233.6138565419824,,,,,cw,60,10,15,0,"[2, 0.5]",lin,1,2,None,0,57,126,up,0.5,3.0,233.60202312498586,233.6138565419824,234.11432912497548,234.40015974995913,234.89754574996186,234.89994641696103,234.89994641696103,235.08284954197006,1,ccw,258488,001,2025-02-27_07h06.21.954,2d-motion-direction-discrimination,2024.2.4,None,2025-02-27 07h06.33.777201 -0500,
235.0971227089758,,,,,ccw,60,-10,0,-15,"[2, 0.5]",lin,2,1,None,1,57,127,up,0.5,-0.5,235.0833412919892,235.0971227089758,235.58356762496987,235.89741266699275,236.39857937494526,236.39857937494526,236.39857937494526,236.62711620895425,1,ccw,258488,001,2025-02-27_07h06.21.954,2d-motion-direction-discrimination,2024.2.4,None,2025-02-27 07h06.33.777201 -0500,
236.63374449999537,,,,,cw,60,10,15,0,"[2, 0.5]",lin,1,2,None,0,58,128,up,0.5,3.0,236.62763916695258,236.63374449999537,237.13252795895096,237.43134204199305,237.93040945898974,237.91638979199342,237.91638979199342,238.43481933395378,1,ccw,258488,001,2025-02-27_07h06.21.954,2d-motion-direction-discrimination,2024.2.4,None,2025-02-27 07h06.33.777201 -0500,
238.44719320896547,,,,,ccw,60,-10,0,-15,"[2, 0.5]",lin,2,1,None,1,58,129,down,0.5,-1.0,238.4357108749682,238.44719320896547,238.9328576249536,239.23154116695514,239.71837324998342,239.7310815419769,239.7310815419769,240.11509366700193,0,cw,258488,001,2025-02-27_07h06.21.954,2d-motion-direction-discrimination,2024.2.4,None,2025-02-27 07h06.33.777201 -0500,
240.12091387499822,,,,,ccw,60,-10,0,-15,"[2, 0.5]",lin,2,1,None,1,59,130,down,0.5,-1.0,240.11567337496672,240.12091387499822,240.61611745896516,240.91494545899332,241.4138283749926,241.4138283749926,241.4138283749926,241.7851484999992,0,cw,258488,001,2025-02-27_07h06.21.954,2d-motion-direction-discrimination,2024.2.4,None,2025-02-27 07h06.33.777201 -0500,
241.79702579195146,,,,,cw,60,10,15,0,"[2, 0.5]",lin,1,2,None,0,59,131,down,0.5,2.5,241.78581749997102,241.79702579195146,242.2831835419638,242.58047099999385,243.06819816696225,243.0811286669923,243.0811286669923,243.33907229197212,1,ccw,258488,001,2025-02-27_07h06.21.954,2d-motion-direction-discrimination,2024.2.4,None,2025-02-27 07h06.33.777201 -0500,
243.34708308399422,,,,,cw,60,10,15,0,"[2, 0.5]",lin,1,2,None,0,60,132,down,0.5,2.5,243.33964149997337,243.34708308399422,243.84832429199014,244.13631574995816,244.63335770898266,244.63335770898266,244.63335770898266,244.9484789999551,1,ccw,258488,001,2025-02-27_07h06.21.954,2d-motion-direction-discrimination,2024.2.4,None,2025-02-27 07h06.33.777201 -0500,
244.954047874955,,,,,ccw,60,-10,0,-15,"[2, 0.5]",lin,2,1,None,1,60,133,up,0.5,-0.5,244.94900191697525,244.954047874955,245.46429395896848,245.74834079196444,246.24713641696144,246.24713641696144,246.24713641696144,246.61610949999886,1,ccw,258488,001,2025-02-27_07h06.21.954,2d-motion-direction-discrimination,2024.2.4,None,2025-02-27 07h06.33.777201 -0500,
